"user.name";"user.yearOfBirth";"user.sex";"user.osName";"module.name";"module.version";"module.online.subject.code";"module.online.study.id";"module.online.module.nr";"module.online.group.nr";"session.id";"session.index";"session.startTime";"session.endTime";"session.completed";"session.node-2365.DevalQorder";"session.node-7333.conditionType";"trial.id";"trial.index";"trial.name";"trial.deval1.durationTime";"trial.deval1.endTime";"trial.deval1.icon";"trial.deval1.Resp_Attractive";"trial.deval1.Resp_Eat";"trial.deval1.Resp_Taste";"trial.deval1.RT_Attractive";"trial.deval1.RT_Eat";"trial.deval1.RT_Taste";"trial.deval1.startTime";"trial.deval1.stimulus type";"trial.devalPractice.durationTime";"trial.devalPractice.endTime";"trial.devalPractice.icon";"trial.devalPractice.Resp_Attractive";"trial.devalPractice.Resp_Eat";"trial.devalPractice.Resp_Taste";"trial.devalPractice.RT_Attractive";"trial.devalPractice.RT_Eat";"trial.devalPractice.RT_Taste";"trial.devalPractice.startTime";"trial.devalPractice.stimulus type";"trial.GoNoGo1.durationTime";"trial.GoNoGo1.endTime";"trial.GoNoGo1.Error Type";"trial.GoNoGo1.icon";"trial.GoNoGo1.location";"trial.GoNoGo1.outcome";"trial.GoNoGo1.response";"trial.GoNoGo1.result";"trial.GoNoGo1.RT";"trial.GoNoGo1.signal";"trial.GoNoGo1.startTime";"trial.GoNoGo1.stimulus type";"trial.GoNoGo2.durationTime";"trial.GoNoGo2.endTime";"trial.GoNoGo2.Error Type";"trial.GoNoGo2.icon";"trial.GoNoGo2.location";"trial.GoNoGo2.outcome";"trial.GoNoGo2.response";"trial.GoNoGo2.result";"trial.GoNoGo2.RT";"trial.GoNoGo2.signal";"trial.GoNoGo2.startTime";"trial.GoNoGo2.stimulus type";"trial.GoNoGo3.durationTime";"trial.GoNoGo3.endTime";"trial.GoNoGo3.Error Type";"trial.GoNoGo3.icon";"trial.GoNoGo3.location";"trial.GoNoGo3.outcome";"trial.GoNoGo3.response";"trial.GoNoGo3.result";"trial.GoNoGo3.RT";"trial.GoNoGo3.signal";"trial.GoNoGo3.startTime";"trial.GoNoGo3.stimulus type";"trial.GoNoGo4.durationTime";"trial.GoNoGo4.endTime";"trial.GoNoGo4.Error Type";"trial.GoNoGo4.icon";"trial.GoNoGo4.location";"trial.GoNoGo4.outcome";"trial.GoNoGo4.response";"trial.GoNoGo4.result";"trial.GoNoGo4.RT";"trial.GoNoGo4.signal";"trial.GoNoGo4.startTime";"trial.GoNoGo4.stimulus type";"trial.GoNoGo_Practice.durationTime";"trial.GoNoGo_Practice.endTime";"trial.GoNoGo_Practice.icon";"trial.GoNoGo_Practice.location";"trial.GoNoGo_Practice.outcome";"trial.GoNoGo_Practice.response";"trial.GoNoGo_Practice.result";"trial.GoNoGo_Practice.RT";"trial.GoNoGo_Practice.signal";"trial.GoNoGo_Practice.startTime";"trial.GoNoGo_Practice.stimulus type";"trial.GoNoGo_Tutorial.durationTime";"trial.GoNoGo_Tutorial.endTime";"trial.GoNoGo_Tutorial.icon";"trial.GoNoGo_Tutorial.location";"trial.GoNoGo_Tutorial.outcome";"trial.GoNoGo_Tutorial.response";"trial.GoNoGo_Tutorial.result";"trial.GoNoGo_Tutorial.RT";"trial.GoNoGo_Tutorial.signal";"trial.GoNoGo_Tutorial.startTime"
"On my own";"1993";;"Windows 7";"Rachel's Experiment (D.T.)";"1.0";"2";"1";"1";"2";"1";"1";"2014-07-17 17:58:46.451";"2014-07-17 18:14:04.044";"1";"1";"1";"1";"0";"module.GoNoGotutorial.exec-4403.GoNoGo_Tutorial";;;;;;;;;;;;;;;;;;;;;;;;;;;;;;;;;;;;;;;;;;;;;;;;;;;;;;;;;;;;;;;;;;;;;;;;;;;;;;;;;;"4000";"2014-07-17 18:00:09.412";"leftResponse";"0";"FINISHED";"LEFT";"success";"762";"0";"2014-07-17 18:00:05.403"
"On my own";"1993";;"Windows 7";"Rachel's Experiment (D.T.)";"1.0";"2";"1";"1";"2";"1";"1";"2014-07-17 17:58:46.451";"2014-07-17 18:14:04.044";"1";"1";"1";"2";"1";"module.GoNoGotutorial.exec-4403.GoNoGo_Tutorial";;;;;;;;;;;;;;;;;;;;;;;;;;;;;;;;;;;;;;;;;;;;;;;;;;;;;;;;;;;;;;;;;;;;;;;;;;;;;;;;;;"3997";"2014-07-17 18:00:14.731";"rightResponse";"1";"FINISHED";"RIGHT";"success";"2179";"0";"2014-07-17 18:00:10.722"
"On my own";"1993";;"Windows 7";"Rachel's Experiment (D.T.)";"1.0";"2";"1";"1";"2";"1";"1";"2014-07-17 17:58:46.451";"2014-07-17 18:14:04.044";"1";"1";"1";"3";"2";"module.GoNoGotutorial.exec-4403.GoNoGo_Tutorial";;;;;;;;;;;;;;;;;;;;;;;;;;;;;;;;;;;;;;;;;;;;;;;;;;;;;;;;;;;;;;;;;;;;;;;;;;;;;;;;;;"3998";"2014-07-17 18:00:20.051";"signalResponse";"0";"FINISHED";"NONE";"success";"0";"1";"2014-07-17 18:00:16.042"
"On my own";"1993";;"Windows 7";"Rachel's Experiment (D.T.)";"1.0";"2";"1";"1";"2";"1";"1";"2014-07-17 17:58:46.451";"2014-07-17 18:14:04.044";"1";"1";"1";"4";"3";"module.GoNoGopractice.exec-1172.GoNoGo_Practice";;;;;;;;;;;;;;;;;;;;;;;;;;;;;;;;;;;;;;;;;;;;;;;;;;;;;;;;;;;;;;;;;;;;;;;"1954";"2014-07-17 18:00:28.631";"18";"0";"FINISHED";"LEFT";"success";"376";"0";"2014-07-17 18:00:26.665";"3";;;;;;;;;;
"On my own";"1993";;"Windows 7";"Rachel's Experiment (D.T.)";"1.0";"2";"1";"1";"2";"1";"1";"2014-07-17 17:58:46.451";"2014-07-17 18:14:04.044";"1";"1";"1";"5";"4";"module.GoNoGopractice.exec-1172.GoNoGo_Practice";;;;;;;;;;;;;;;;;;;;;;;;;;;;;;;;;;;;;;;;;;;;;;;;;;;;;;;;;;;;;;;;;;;;;;;"1952";"2014-07-17 18:00:31.907";"21";"1";"FINISHED";"RIGHT";"success";"359";"0";"2014-07-17 18:00:29.941";"3";;;;;;;;;;
"On my own";"1993";;"Windows 7";"Rachel's Experiment (D.T.)";"1.0";"2";"1";"1";"2";"1";"1";"2014-07-17 17:58:46.451";"2014-07-17 18:14:04.044";"1";"1";"1";"6";"5";"module.GoNoGopractice.exec-1172.GoNoGo_Practice";;;;;;;;;;;;;;;;;;;;;;;;;;;;;;;;;;;;;;;;;;;;;;;;;;;;;;;;;;;;;;;;;;;;;;;"1954";"2014-07-17 18:00:35.183";"14";"1";"FINISHED";"RIGHT";"failure";"529";"1";"2014-07-17 18:00:33.217";"2";;;;;;;;;;
"On my own";"1993";;"Windows 7";"Rachel's Experiment (D.T.)";"1.0";"2";"1";"1";"2";"1";"1";"2014-07-17 17:58:46.451";"2014-07-17 18:14:04.044";"1";"1";"1";"7";"6";"module.GoNoGopractice.exec-1172.GoNoGo_Practice";;;;;;;;;;;;;;;;;;;;;;;;;;;;;;;;;;;;;;;;;;;;;;;;;;;;;;;;;;;;;;;;;;;;;;;"1954";"2014-07-17 18:00:38.459";"26";"0";"FINISHED";"LEFT";"success";"592";"0";"2014-07-17 18:00:36.493";"3";;;;;;;;;;
"On my own";"1993";;"Windows 7";"Rachel's Experiment (D.T.)";"1.0";"2";"1";"1";"2";"1";"1";"2014-07-17 17:58:46.451";"2014-07-17 18:14:04.044";"1";"1";"1";"8";"7";"module.GoNoGopractice.exec-1172.GoNoGo_Practice";;;;;;;;;;;;;;;;;;;;;;;;;;;;;;;;;;;;;;;;;;;;;;;;;;;;;;;;;;;;;;;;;;;;;;;"1954";"2014-07-17 18:00:41.704";"2";"0";"FINISHED";"LEFT";"success";"568";"0";"2014-07-17 18:00:39.738";"1";;;;;;;;;;
"On my own";"1993";;"Windows 7";"Rachel's Experiment (D.T.)";"1.0";"2";"1";"1";"2";"1";"1";"2014-07-17 17:58:46.451";"2014-07-17 18:14:04.044";"1";"1";"1";"9";"8";"module.GoNoGopractice.exec-1172.GoNoGo_Practice";;;;;;;;;;;;;;;;;;;;;;;;;;;;;;;;;;;;;;;;;;;;;;;;;;;;;;;;;;;;;;;;;;;;;;;"1955";"2014-07-17 18:00:44.964";"30";"0";"FINISHED";"NONE";"success";"0";"1";"2014-07-17 18:00:42.999";"3";;;;;;;;;;
"On my own";"1993";;"Windows 7";"Rachel's Experiment (D.T.)";"1.0";"2";"1";"1";"2";"1";"1";"2014-07-17 17:58:46.451";"2014-07-17 18:14:04.044";"1";"1";"1";"10";"9";"module.GoNoGopractice.exec-1172.GoNoGo_Practice";;;;;;;;;;;;;;;;;;;;;;;;;;;;;;;;;;;;;;;;;;;;;;;;;;;;;;;;;;;;;;;;;;;;;;;"1954";"2014-07-17 18:00:48.240";"6";"1";"FINISHED";"NONE";"success";"0";"1";"2014-07-17 18:00:46.275";"1";;;;;;;;;;
"On my own";"1993";;"Windows 7";"Rachel's Experiment (D.T.)";"1.0";"2";"1";"1";"2";"1";"1";"2014-07-17 17:58:46.451";"2014-07-17 18:14:04.044";"1";"1";"1";"11";"10";"module.GoNoGopractice.exec-1172.GoNoGo_Practice";;;;;;;;;;;;;;;;;;;;;;;;;;;;;;;;;;;;;;;;;;;;;;;;;;;;;;;;;;;;;;;;;;;;;;;"1956";"2014-07-17 18:00:51.516";"34";"0";"FINISHED";"LEFT";"success";"431";"0";"2014-07-17 18:00:49.551";"3";;;;;;;;;;
"On my own";"1993";;"Windows 7";"Rachel's Experiment (D.T.)";"1.0";"2";"1";"1";"2";"1";"1";"2014-07-17 17:58:46.451";"2014-07-17 18:14:04.044";"1";"1";"1";"12";"11";"module.GoNoGopractice.exec-1172.GoNoGo_Practice";;;;;;;;;;;;;;;;;;;;;;;;;;;;;;;;;;;;;;;;;;;;;;;;;;;;;;;;;;;;;;;;;;;;;;;"1954";"2014-07-17 18:00:54.777";"23";"1";"FINISHED";"RIGHT";"success";"492";"0";"2014-07-17 18:00:52.811";"3";;;;;;;;;;
"On my own";"1993";;"Windows 7";"Rachel's Experiment (D.T.)";"1.0";"2";"1";"1";"2";"1";"1";"2014-07-17 17:58:46.451";"2014-07-17 18:14:04.044";"1";"1";"1";"13";"12";"module.GoNoGopractice.exec-1172.GoNoGo_Practice";;;;;;;;;;;;;;;;;;;;;;;;;;;;;;;;;;;;;;;;;;;;;;;;;;;;;;;;;;;;;;;;;;;;;;;"1954";"2014-07-17 18:00:58.021";"13";"0";"FINISHED";"NONE";"success";"0";"1";"2014-07-17 18:00:56.056";"2";;;;;;;;;;
"On my own";"1993";;"Windows 7";"Rachel's Experiment (D.T.)";"1.0";"2";"1";"1";"2";"1";"1";"2014-07-17 17:58:46.451";"2014-07-17 18:14:04.044";"1";"1";"1";"14";"13";"module.GoNoGopractice.exec-1172.GoNoGo_Practice";;;;;;;;;;;;;;;;;;;;;;;;;;;;;;;;;;;;;;;;;;;;;;;;;;;;;;;;;;;;;;;;;;;;;;;"1956";"2014-07-17 18:01:01.266";"3";"1";"FINISHED";"RIGHT";"success";"420";"0";"2014-07-17 18:00:59.301";"1";;;;;;;;;;
"On my own";"1993";;"Windows 7";"Rachel's Experiment (D.T.)";"1.0";"2";"1";"1";"2";"1";"1";"2014-07-17 17:58:46.451";"2014-07-17 18:14:04.044";"1";"1";"1";"15";"14";"module.GoNoGopractice.exec-1172.GoNoGo_Practice";;;;;;;;;;;;;;;;;;;;;;;;;;;;;;;;;;;;;;;;;;;;;;;;;;;;;;;;;;;;;;;;;;;;;;;"1954";"2014-07-17 18:01:04.542";"27";"1";"FINISHED";"NONE";"success";"0";"1";"2014-07-17 18:01:02.577";"3";;;;;;;;;;
"On my own";"1993";;"Windows 7";"Rachel's Experiment (D.T.)";"1.0";"2";"1";"1";"2";"1";"1";"2014-07-17 17:58:46.451";"2014-07-17 18:14:04.044";"1";"1";"1";"16";"15";"module.training_block1.exec-2689.GoNoGo1";;;;;;;;;;;;;;;;;;;;;;;"1257";"2014-07-17 18:01:15.649";"ST_correctStop";"25";"1";"FINISHED";"NONE";"success";"0";"1";"2014-07-17 18:01:14.386";"3";;;;;;;;;;;;;;;;;;;;;;;;;;;;;;;;;;;;;;;;;;;;;;;;;;;;;;;;;
"On my own";"1993";;"Windows 7";"Rachel's Experiment (D.T.)";"1.0";"2";"1";"1";"2";"1";"1";"2014-07-17 17:58:46.451";"2014-07-17 18:14:04.044";"1";"1";"1";"17";"16";"module.training_block1.exec-2689.GoNoGo1";;;;;;;;;;;;;;;;;;;;;;;"1260";"2014-07-17 18:01:18.223";"NST_correctLoc";"23";"0";"FINISHED";"LEFT";"success";"416";"0";"2014-07-17 18:01:16.960";"3";;;;;;;;;;;;;;;;;;;;;;;;;;;;;;;;;;;;;;;;;;;;;;;;;;;;;;;;;
"On my own";"1993";;"Windows 7";"Rachel's Experiment (D.T.)";"1.0";"2";"1";"1";"2";"1";"1";"2014-07-17 17:58:46.451";"2014-07-17 18:14:04.044";"1";"1";"1";"18";"17";"module.training_block1.exec-2689.GoNoGo1";;;;;;;;;;;;;;;;;;;;;;;"1261";"2014-07-17 18:01:20.797";"ST_correctStop";"21";"0";"FINISHED";"NONE";"success";"0";"1";"2014-07-17 18:01:19.534";"3";;;;;;;;;;;;;;;;;;;;;;;;;;;;;;;;;;;;;;;;;;;;;;;;;;;;;;;;;
"On my own";"1993";;"Windows 7";"Rachel's Experiment (D.T.)";"1.0";"2";"1";"1";"2";"1";"1";"2014-07-17 17:58:46.451";"2014-07-17 18:14:04.044";"1";"1";"1";"19";"18";"module.training_block1.exec-2689.GoNoGo1";;;;;;;;;;;;;;;;;;;;;;;"1260";"2014-07-17 18:01:23.371";"ST_correctStop";"6";"1";"FINISHED";"NONE";"success";"0";"1";"2014-07-17 18:01:22.108";"1";;;;;;;;;;;;;;;;;;;;;;;;;;;;;;;;;;;;;;;;;;;;;;;;;;;;;;;;;
"On my own";"1993";;"Windows 7";"Rachel's Experiment (D.T.)";"1.0";"2";"1";"1";"2";"1";"1";"2014-07-17 17:58:46.451";"2014-07-17 18:14:04.044";"1";"1";"1";"20";"19";"module.training_block1.exec-2689.GoNoGo1";;;;;;;;;;;;;;;;;;;;;;;"1262";"2014-07-17 18:01:25.945";"NST_correctLoc";"13";"1";"FINISHED";"RIGHT";"success";"418";"0";"2014-07-17 18:01:24.682";"2";;;;;;;;;;;;;;;;;;;;;;;;;;;;;;;;;;;;;;;;;;;;;;;;;;;;;;;;;
"On my own";"1993";;"Windows 7";"Rachel's Experiment (D.T.)";"1.0";"2";"1";"1";"2";"1";"1";"2014-07-17 17:58:46.451";"2014-07-17 18:14:04.044";"1";"1";"1";"21";"20";"module.training_block1.exec-2689.GoNoGo1";;;;;;;;;;;;;;;;;;;;;;;"1260";"2014-07-17 18:01:28.519";"ST_correctStop";"2";"1";"FINISHED";"NONE";"success";"0";"1";"2014-07-17 18:01:27.256";"1";;;;;;;;;;;;;;;;;;;;;;;;;;;;;;;;;;;;;;;;;;;;;;;;;;;;;;;;;
"On my own";"1993";;"Windows 7";"Rachel's Experiment (D.T.)";"1.0";"2";"1";"1";"2";"1";"1";"2014-07-17 17:58:46.451";"2014-07-17 18:14:04.044";"1";"1";"1";"22";"21";"module.training_block1.exec-2689.GoNoGo1";;;;;;;;;;;;;;;;;;;;;;;"1252";"2014-07-17 18:01:31.094";"NST_correctLoc";"22";"0";"FINISHED";"LEFT";"success";"338";"0";"2014-07-17 18:01:29.830";"3";;;;;;;;;;;;;;;;;;;;;;;;;;;;;;;;;;;;;;;;;;;;;;;;;;;;;;;;;
"On my own";"1993";;"Windows 7";"Rachel's Experiment (D.T.)";"1.0";"2";"1";"1";"2";"1";"1";"2014-07-17 17:58:46.451";"2014-07-17 18:14:04.044";"1";"1";"1";"23";"22";"module.training_block1.exec-2689.GoNoGo1";;;;;;;;;;;;;;;;;;;;;;;"1258";"2014-07-17 18:01:33.636";"NST_correctLoc";"15";"1";"FINISHED";"RIGHT";"success";"473";"0";"2014-07-17 18:01:32.373";"2";;;;;;;;;;;;;;;;;;;;;;;;;;;;;;;;;;;;;;;;;;;;;;;;;;;;;;;;;
"On my own";"1993";;"Windows 7";"Rachel's Experiment (D.T.)";"1.0";"2";"1";"1";"2";"1";"1";"2014-07-17 17:58:46.451";"2014-07-17 18:14:04.044";"1";"1";"1";"24";"23";"module.training_block1.exec-2689.GoNoGo1";;;;;;;;;;;;;;;;;;;;;;;"1252";"2014-07-17 18:01:36.195";"NST_correctLoc";"33";"0";"FINISHED";"LEFT";"success";"418";"0";"2014-07-17 18:01:34.931";"3";;;;;;;;;;;;;;;;;;;;;;;;;;;;;;;;;;;;;;;;;;;;;;;;;;;;;;;;;
"On my own";"1993";;"Windows 7";"Rachel's Experiment (D.T.)";"1.0";"2";"1";"1";"2";"1";"1";"2014-07-17 17:58:46.451";"2014-07-17 18:14:04.044";"1";"1";"1";"25";"24";"module.training_block1.exec-2689.GoNoGo1";;;;;;;;;;;;;;;;;;;;;;;"1254";"2014-07-17 18:01:38.753";"NST_correctLoc";"12";"1";"FINISHED";"RIGHT";"success";"408";"0";"2014-07-17 18:01:37.490";"2";;;;;;;;;;;;;;;;;;;;;;;;;;;;;;;;;;;;;;;;;;;;;;;;;;;;;;;;;
"On my own";"1993";;"Windows 7";"Rachel's Experiment (D.T.)";"1.0";"2";"1";"1";"2";"1";"1";"2014-07-17 17:58:46.451";"2014-07-17 18:14:04.044";"1";"1";"1";"26";"25";"module.training_block1.exec-2689.GoNoGo1";;;;;;;;;;;;;;;;;;;;;;;"1262";"2014-07-17 18:01:41.327";"ST_correctStop";"29";"0";"FINISHED";"NONE";"success";"0";"1";"2014-07-17 18:01:40.064";"3";;;;;;;;;;;;;;;;;;;;;;;;;;;;;;;;;;;;;;;;;;;;;;;;;;;;;;;;;
"On my own";"1993";;"Windows 7";"Rachel's Experiment (D.T.)";"1.0";"2";"1";"1";"2";"1";"1";"2014-07-17 17:58:46.451";"2014-07-17 18:14:04.044";"1";"1";"1";"27";"26";"module.training_block1.exec-2689.GoNoGo1";;;;;;;;;;;;;;;;;;;;;;;"1253";"2014-07-17 18:01:43.886";"ST_correctStop";"8";"1";"FINISHED";"NONE";"success";"0";"1";"2014-07-17 18:01:42.622";"1";;;;;;;;;;;;;;;;;;;;;;;;;;;;;;;;;;;;;;;;;;;;;;;;;;;;;;;;;
"On my own";"1993";;"Windows 7";"Rachel's Experiment (D.T.)";"1.0";"2";"1";"1";"2";"1";"1";"2014-07-17 17:58:46.451";"2014-07-17 18:14:04.044";"1";"1";"1";"28";"27";"module.training_block1.exec-2689.GoNoGo1";;;;;;;;;;;;;;;;;;;;;;;"1260";"2014-07-17 18:01:46.444";"ST_correctStop";"27";"0";"FINISHED";"NONE";"success";"0";"1";"2014-07-17 18:01:45.180";"3";;;;;;;;;;;;;;;;;;;;;;;;;;;;;;;;;;;;;;;;;;;;;;;;;;;;;;;;;
"On my own";"1993";;"Windows 7";"Rachel's Experiment (D.T.)";"1.0";"2";"1";"1";"2";"1";"1";"2014-07-17 17:58:46.451";"2014-07-17 18:14:04.044";"1";"1";"1";"29";"28";"module.training_block1.exec-2689.GoNoGo1";;;;;;;;;;;;;;;;;;;;;;;"1260";"2014-07-17 18:01:49.002";"ST_correctStop";"30";"1";"FINISHED";"NONE";"success";"0";"1";"2014-07-17 18:01:47.739";"3";;;;;;;;;;;;;;;;;;;;;;;;;;;;;;;;;;;;;;;;;;;;;;;;;;;;;;;;;
"On my own";"1993";;"Windows 7";"Rachel's Experiment (D.T.)";"1.0";"2";"1";"1";"2";"1";"1";"2014-07-17 17:58:46.451";"2014-07-17 18:14:04.044";"1";"1";"1";"30";"29";"module.training_block1.exec-2689.GoNoGo1";;;;;;;;;;;;;;;;;;;;;;;"1252";"2014-07-17 18:01:51.561";"NST_correctLoc";"11";"1";"FINISHED";"RIGHT";"success";"425";"0";"2014-07-17 18:01:50.297";"2";;;;;;;;;;;;;;;;;;;;;;;;;;;;;;;;;;;;;;;;;;;;;;;;;;;;;;;;;
"On my own";"1993";;"Windows 7";"Rachel's Experiment (D.T.)";"1.0";"2";"1";"1";"2";"1";"1";"2014-07-17 17:58:46.451";"2014-07-17 18:14:04.044";"1";"1";"1";"31";"30";"module.training_block1.exec-2689.GoNoGo1";;;;;;;;;;;;;;;;;;;;;;;"1259";"2014-07-17 18:01:54.119";"ST_failedStop";"7";"1";"FINISHED";"RIGHT";"failure";"452";"1";"2014-07-17 18:01:52.856";"1";;;;;;;;;;;;;;;;;;;;;;;;;;;;;;;;;;;;;;;;;;;;;;;;;;;;;;;;;
"On my own";"1993";;"Windows 7";"Rachel's Experiment (D.T.)";"1.0";"2";"1";"1";"2";"1";"1";"2014-07-17 17:58:46.451";"2014-07-17 18:14:04.044";"1";"1";"1";"32";"31";"module.training_block1.exec-2689.GoNoGo1";;;;;;;;;;;;;;;;;;;;;;;"1253";"2014-07-17 18:01:56.678";"NST_correctLoc";"9";"0";"FINISHED";"LEFT";"success";"484";"0";"2014-07-17 18:01:55.414";"2";;;;;;;;;;;;;;;;;;;;;;;;;;;;;;;;;;;;;;;;;;;;;;;;;;;;;;;;;
"On my own";"1993";;"Windows 7";"Rachel's Experiment (D.T.)";"1.0";"2";"1";"1";"2";"1";"1";"2014-07-17 17:58:46.451";"2014-07-17 18:14:04.044";"1";"1";"1";"33";"32";"module.training_block1.exec-2689.GoNoGo1";;;;;;;;;;;;;;;;;;;;;;;"1258";"2014-07-17 18:01:59.236";"ST_correctStop";"32";"0";"FINISHED";"NONE";"success";"0";"1";"2014-07-17 18:01:57.972";"3";;;;;;;;;;;;;;;;;;;;;;;;;;;;;;;;;;;;;;;;;;;;;;;;;;;;;;;;;
"On my own";"1993";;"Windows 7";"Rachel's Experiment (D.T.)";"1.0";"2";"1";"1";"2";"1";"1";"2014-07-17 17:58:46.451";"2014-07-17 18:14:04.044";"1";"1";"1";"34";"33";"module.training_block1.exec-2689.GoNoGo1";;;;;;;;;;;;;;;;;;;;;;;"1260";"2014-07-17 18:02:01.794";"NST_correctLoc";"14";"0";"FINISHED";"LEFT";"success";"451";"0";"2014-07-17 18:02:00.531";"2";;;;;;;;;;;;;;;;;;;;;;;;;;;;;;;;;;;;;;;;;;;;;;;;;;;;;;;;;
"On my own";"1993";;"Windows 7";"Rachel's Experiment (D.T.)";"1.0";"2";"1";"1";"2";"1";"1";"2014-07-17 17:58:46.451";"2014-07-17 18:14:04.044";"1";"1";"1";"35";"34";"module.training_block1.exec-2689.GoNoGo1";;;;;;;;;;;;;;;;;;;;;;;"1253";"2014-07-17 18:02:04.353";"NST_correctLoc";"28";"0";"FINISHED";"LEFT";"success";"468";"0";"2014-07-17 18:02:03.089";"3";;;;;;;;;;;;;;;;;;;;;;;;;;;;;;;;;;;;;;;;;;;;;;;;;;;;;;;;;
"On my own";"1993";;"Windows 7";"Rachel's Experiment (D.T.)";"1.0";"2";"1";"1";"2";"1";"1";"2014-07-17 17:58:46.451";"2014-07-17 18:14:04.044";"1";"1";"1";"36";"35";"module.training_block1.exec-2689.GoNoGo1";;;;;;;;;;;;;;;;;;;;;;;"1252";"2014-07-17 18:02:06.911";"NST_correctLoc";"20";"0";"FINISHED";"LEFT";"success";"506";"0";"2014-07-17 18:02:05.648";"3";;;;;;;;;;;;;;;;;;;;;;;;;;;;;;;;;;;;;;;;;;;;;;;;;;;;;;;;;
"On my own";"1993";;"Windows 7";"Rachel's Experiment (D.T.)";"1.0";"2";"1";"1";"2";"1";"1";"2014-07-17 17:58:46.451";"2014-07-17 18:14:04.044";"1";"1";"1";"37";"36";"module.training_block1.exec-2689.GoNoGo1";;;;;;;;;;;;;;;;;;;;;;;"1260";"2014-07-17 18:02:09.470";"NST_correctLoc";"34";"0";"FINISHED";"LEFT";"success";"463";"0";"2014-07-17 18:02:08.206";"3";;;;;;;;;;;;;;;;;;;;;;;;;;;;;;;;;;;;;;;;;;;;;;;;;;;;;;;;;
"On my own";"1993";;"Windows 7";"Rachel's Experiment (D.T.)";"1.0";"2";"1";"1";"2";"1";"1";"2014-07-17 17:58:46.451";"2014-07-17 18:14:04.044";"1";"1";"1";"38";"37";"module.training_block1.exec-2689.GoNoGo1";;;;;;;;;;;;;;;;;;;;;;;"1252";"2014-07-17 18:02:12.044";"ST_correctStop";"0";"1";"FINISHED";"NONE";"success";"0";"1";"2014-07-17 18:02:10.780";"1";;;;;;;;;;;;;;;;;;;;;;;;;;;;;;;;;;;;;;;;;;;;;;;;;;;;;;;;;
"On my own";"1993";;"Windows 7";"Rachel's Experiment (D.T.)";"1.0";"2";"1";"1";"2";"1";"1";"2014-07-17 17:58:46.451";"2014-07-17 18:14:04.044";"1";"1";"1";"39";"38";"module.training_block1.exec-2689.GoNoGo1";;;;;;;;;;;;;;;;;;;;;;;"1253";"2014-07-17 18:02:14.602";"NST_correctLoc";"19";"1";"FINISHED";"RIGHT";"success";"425";"0";"2014-07-17 18:02:13.338";"3";;;;;;;;;;;;;;;;;;;;;;;;;;;;;;;;;;;;;;;;;;;;;;;;;;;;;;;;;
"On my own";"1993";;"Windows 7";"Rachel's Experiment (D.T.)";"1.0";"2";"1";"1";"2";"1";"1";"2014-07-17 17:58:46.451";"2014-07-17 18:14:04.044";"1";"1";"1";"40";"39";"module.training_block1.exec-2689.GoNoGo1";;;;;;;;;;;;;;;;;;;;;;;"1254";"2014-07-17 18:02:17.145";"ST_correctStop";"1";"0";"FINISHED";"NONE";"success";"0";"1";"2014-07-17 18:02:15.881";"1";;;;;;;;;;;;;;;;;;;;;;;;;;;;;;;;;;;;;;;;;;;;;;;;;;;;;;;;;
"On my own";"1993";;"Windows 7";"Rachel's Experiment (D.T.)";"1.0";"2";"1";"1";"2";"1";"1";"2014-07-17 17:58:46.451";"2014-07-17 18:14:04.044";"1";"1";"1";"41";"40";"module.training_block1.exec-2689.GoNoGo1";;;;;;;;;;;;;;;;;;;;;;;"1252";"2014-07-17 18:02:19.703";"ST_correctStop";"31";"1";"FINISHED";"NONE";"success";"0";"1";"2014-07-17 18:02:18.440";"3";;;;;;;;;;;;;;;;;;;;;;;;;;;;;;;;;;;;;;;;;;;;;;;;;;;;;;;;;
"On my own";"1993";;"Windows 7";"Rachel's Experiment (D.T.)";"1.0";"2";"1";"1";"2";"1";"1";"2014-07-17 17:58:46.451";"2014-07-17 18:14:04.044";"1";"1";"1";"42";"41";"module.training_block1.exec-2689.GoNoGo1";;;;;;;;;;;;;;;;;;;;;;;"1260";"2014-07-17 18:02:22.262";"NST_correctLoc";"18";"1";"FINISHED";"RIGHT";"success";"407";"0";"2014-07-17 18:02:20.998";"3";;;;;;;;;;;;;;;;;;;;;;;;;;;;;;;;;;;;;;;;;;;;;;;;;;;;;;;;;
"On my own";"1993";;"Windows 7";"Rachel's Experiment (D.T.)";"1.0";"2";"1";"1";"2";"1";"1";"2014-07-17 17:58:46.451";"2014-07-17 18:14:04.044";"1";"1";"1";"43";"42";"module.training_block1.exec-2689.GoNoGo1";;;;;;;;;;;;;;;;;;;;;;;"1252";"2014-07-17 18:02:24.820";"ST_correctStop";"24";"1";"FINISHED";"NONE";"success";"0";"1";"2014-07-17 18:02:23.556";"3";;;;;;;;;;;;;;;;;;;;;;;;;;;;;;;;;;;;;;;;;;;;;;;;;;;;;;;;;
"On my own";"1993";;"Windows 7";"Rachel's Experiment (D.T.)";"1.0";"2";"1";"1";"2";"1";"1";"2014-07-17 17:58:46.451";"2014-07-17 18:14:04.044";"1";"1";"1";"44";"43";"module.training_block1.exec-2689.GoNoGo1";;;;;;;;;;;;;;;;;;;;;;;"1252";"2014-07-17 18:02:27.378";"ST_correctStop";"4";"0";"FINISHED";"NONE";"success";"0";"1";"2014-07-17 18:02:26.115";"1";;;;;;;;;;;;;;;;;;;;;;;;;;;;;;;;;;;;;;;;;;;;;;;;;;;;;;;;;
"On my own";"1993";;"Windows 7";"Rachel's Experiment (D.T.)";"1.0";"2";"1";"1";"2";"1";"1";"2014-07-17 17:58:46.451";"2014-07-17 18:14:04.044";"1";"1";"1";"45";"44";"module.training_block1.exec-2689.GoNoGo1";;;;;;;;;;;;;;;;;;;;;;;"1260";"2014-07-17 18:02:29.921";"ST_correctStop";"26";"0";"FINISHED";"NONE";"success";"0";"1";"2014-07-17 18:02:28.658";"3";;;;;;;;;;;;;;;;;;;;;;;;;;;;;;;;;;;;;;;;;;;;;;;;;;;;;;;;;
"On my own";"1993";;"Windows 7";"Rachel's Experiment (D.T.)";"1.0";"2";"1";"1";"2";"1";"1";"2014-07-17 17:58:46.451";"2014-07-17 18:14:04.044";"1";"1";"1";"46";"45";"module.training_block1.exec-2689.GoNoGo1";;;;;;;;;;;;;;;;;;;;;;;"1253";"2014-07-17 18:02:32.480";"ST_correctStop";"5";"1";"FINISHED";"NONE";"success";"0";"1";"2014-07-17 18:02:31.216";"1";;;;;;;;;;;;;;;;;;;;;;;;;;;;;;;;;;;;;;;;;;;;;;;;;;;;;;;;;
"On my own";"1993";;"Windows 7";"Rachel's Experiment (D.T.)";"1.0";"2";"1";"1";"2";"1";"1";"2014-07-17 17:58:46.451";"2014-07-17 18:14:04.044";"1";"1";"1";"47";"46";"module.training_block1.exec-2689.GoNoGo1";;;;;;;;;;;;;;;;;;;;;;;"1253";"2014-07-17 18:02:35.038";"NST_correctLoc";"16";"1";"FINISHED";"RIGHT";"success";"475";"0";"2014-07-17 18:02:33.774";"2";;;;;;;;;;;;;;;;;;;;;;;;;;;;;;;;;;;;;;;;;;;;;;;;;;;;;;;;;
"On my own";"1993";;"Windows 7";"Rachel's Experiment (D.T.)";"1.0";"2";"1";"1";"2";"1";"1";"2014-07-17 17:58:46.451";"2014-07-17 18:14:04.044";"1";"1";"1";"48";"47";"module.training_block1.exec-2689.GoNoGo1";;;;;;;;;;;;;;;;;;;;;;;"1262";"2014-07-17 18:02:37.721";"NST_correctLoc";"35";"1";"FINISHED";"RIGHT";"success";"530";"0";"2014-07-17 18:02:36.458";"3";;;;;;;;;;;;;;;;;;;;;;;;;;;;;;;;;;;;;;;;;;;;;;;;;;;;;;;;;
"On my own";"1993";;"Windows 7";"Rachel's Experiment (D.T.)";"1.0";"2";"1";"1";"2";"1";"1";"2014-07-17 17:58:46.451";"2014-07-17 18:14:04.044";"1";"1";"1";"49";"48";"module.training_block1.exec-2689.GoNoGo1";;;;;;;;;;;;;;;;;;;;;;;"1252";"2014-07-17 18:02:40.280";"NST_correctLoc";"17";"0";"FINISHED";"LEFT";"success";"457";"0";"2014-07-17 18:02:39.016";"2";;;;;;;;;;;;;;;;;;;;;;;;;;;;;;;;;;;;;;;;;;;;;;;;;;;;;;;;;
"On my own";"1993";;"Windows 7";"Rachel's Experiment (D.T.)";"1.0";"2";"1";"1";"2";"1";"1";"2014-07-17 17:58:46.451";"2014-07-17 18:14:04.044";"1";"1";"1";"50";"49";"module.training_block1.exec-2689.GoNoGo1";;;;;;;;;;;;;;;;;;;;;;;"1259";"2014-07-17 18:02:42.822";"NST_correctLoc";"10";"0";"FINISHED";"LEFT";"success";"435";"0";"2014-07-17 18:02:41.559";"2";;;;;;;;;;;;;;;;;;;;;;;;;;;;;;;;;;;;;;;;;;;;;;;;;;;;;;;;;
"On my own";"1993";;"Windows 7";"Rachel's Experiment (D.T.)";"1.0";"2";"1";"1";"2";"1";"1";"2014-07-17 17:58:46.451";"2014-07-17 18:14:04.044";"1";"1";"1";"51";"50";"module.training_block1.exec-2689.GoNoGo1";;;;;;;;;;;;;;;;;;;;;;;"1254";"2014-07-17 18:02:45.381";"ST_correctStop";"3";"1";"FINISHED";"NONE";"success";"0";"1";"2014-07-17 18:02:44.117";"1";;;;;;;;;;;;;;;;;;;;;;;;;;;;;;;;;;;;;;;;;;;;;;;;;;;;;;;;;
"On my own";"1993";;"Windows 7";"Rachel's Experiment (D.T.)";"1.0";"2";"1";"1";"2";"1";"1";"2014-07-17 17:58:46.451";"2014-07-17 18:14:04.044";"1";"1";"1";"52";"51";"module.training_block2.exec-2156.GoNoGo2";;;;;;;;;;;;;;;;;;;;;;;;;;;;;;;;;;;"1251";"2014-07-17 18:02:56.519";"ST_correctStop";"6";"1";"FINISHED";"NONE";"success";"0";"1";"2014-07-17 18:02:55.256";"1";;;;;;;;;;;;;;;;;;;;;;;;;;;;;;;;;;;;;;;;;;;;;
"On my own";"1993";;"Windows 7";"Rachel's Experiment (D.T.)";"1.0";"2";"1";"1";"2";"1";"1";"2014-07-17 17:58:46.451";"2014-07-17 18:14:04.044";"1";"1";"1";"53";"52";"module.training_block2.exec-2156.GoNoGo2";;;;;;;;;;;;;;;;;;;;;;;;;;;;;;;;;;;"1253";"2014-07-17 18:02:59.078";"NST_correctLoc";"19";"1";"FINISHED";"RIGHT";"success";"531";"0";"2014-07-17 18:02:57.814";"3";;;;;;;;;;;;;;;;;;;;;;;;;;;;;;;;;;;;;;;;;;;;;
"On my own";"1993";;"Windows 7";"Rachel's Experiment (D.T.)";"1.0";"2";"1";"1";"2";"1";"1";"2014-07-17 17:58:46.451";"2014-07-17 18:14:04.044";"1";"1";"1";"54";"53";"module.training_block2.exec-2156.GoNoGo2";;;;;;;;;;;;;;;;;;;;;;;;;;;;;;;;;;;"1252";"2014-07-17 18:03:01.636";"NST_correctLoc";"11";"1";"FINISHED";"RIGHT";"success";"539";"0";"2014-07-17 18:03:00.372";"2";;;;;;;;;;;;;;;;;;;;;;;;;;;;;;;;;;;;;;;;;;;;;
"On my own";"1993";;"Windows 7";"Rachel's Experiment (D.T.)";"1.0";"2";"1";"1";"2";"1";"1";"2014-07-17 17:58:46.451";"2014-07-17 18:14:04.044";"1";"1";"1";"55";"54";"module.training_block2.exec-2156.GoNoGo2";;;;;;;;;;;;;;;;;;;;;;;;;;;;;;;;;;;"1253";"2014-07-17 18:03:04.179";"NST_correctLoc";"29";"1";"FINISHED";"RIGHT";"success";"438";"0";"2014-07-17 18:03:02.915";"3";;;;;;;;;;;;;;;;;;;;;;;;;;;;;;;;;;;;;;;;;;;;;
"On my own";"1993";;"Windows 7";"Rachel's Experiment (D.T.)";"1.0";"2";"1";"1";"2";"1";"1";"2014-07-17 17:58:46.451";"2014-07-17 18:14:04.044";"1";"1";"1";"56";"55";"module.training_block2.exec-2156.GoNoGo2";;;;;;;;;;;;;;;;;;;;;;;;;;;;;;;;;;;"1253";"2014-07-17 18:03:06.737";"NST_correctLoc";"28";"0";"FINISHED";"LEFT";"success";"442";"0";"2014-07-17 18:03:05.474";"3";;;;;;;;;;;;;;;;;;;;;;;;;;;;;;;;;;;;;;;;;;;;;
"On my own";"1993";;"Windows 7";"Rachel's Experiment (D.T.)";"1.0";"2";"1";"1";"2";"1";"1";"2014-07-17 17:58:46.451";"2014-07-17 18:14:04.044";"1";"1";"1";"57";"56";"module.training_block2.exec-2156.GoNoGo2";;;;;;;;;;;;;;;;;;;;;;;;;;;;;;;;;;;"1251";"2014-07-17 18:03:09.296";"ST_correctStop";"8";"1";"FINISHED";"NONE";"success";"0";"1";"2014-07-17 18:03:08.032";"1";;;;;;;;;;;;;;;;;;;;;;;;;;;;;;;;;;;;;;;;;;;;;
"On my own";"1993";;"Windows 7";"Rachel's Experiment (D.T.)";"1.0";"2";"1";"1";"2";"1";"1";"2014-07-17 17:58:46.451";"2014-07-17 18:14:04.044";"1";"1";"1";"58";"57";"module.training_block2.exec-2156.GoNoGo2";;;;;;;;;;;;;;;;;;;;;;;;;;;;;;;;;;;"1253";"2014-07-17 18:03:11.854";"ST_correctStop";"18";"1";"FINISHED";"NONE";"success";"0";"1";"2014-07-17 18:03:10.590";"3";;;;;;;;;;;;;;;;;;;;;;;;;;;;;;;;;;;;;;;;;;;;;
"On my own";"1993";;"Windows 7";"Rachel's Experiment (D.T.)";"1.0";"2";"1";"1";"2";"1";"1";"2014-07-17 17:58:46.451";"2014-07-17 18:14:04.044";"1";"1";"1";"59";"58";"module.training_block2.exec-2156.GoNoGo2";;;;;;;;;;;;;;;;;;;;;;;;;;;;;;;;;;;"1258";"2014-07-17 18:03:14.397";"ST_correctStop";"2";"1";"FINISHED";"NONE";"success";"0";"1";"2014-07-17 18:03:13.133";"1";;;;;;;;;;;;;;;;;;;;;;;;;;;;;;;;;;;;;;;;;;;;;
"On my own";"1993";;"Windows 7";"Rachel's Experiment (D.T.)";"1.0";"2";"1";"1";"2";"1";"1";"2014-07-17 17:58:46.451";"2014-07-17 18:14:04.044";"1";"1";"1";"60";"59";"module.training_block2.exec-2156.GoNoGo2";;;;;;;;;;;;;;;;;;;;;;;;;;;;;;;;;;;"1252";"2014-07-17 18:03:16.955";"NST_correctLoc";"27";"0";"FINISHED";"LEFT";"success";"426";"0";"2014-07-17 18:03:15.692";"3";;;;;;;;;;;;;;;;;;;;;;;;;;;;;;;;;;;;;;;;;;;;;
"On my own";"1993";;"Windows 7";"Rachel's Experiment (D.T.)";"1.0";"2";"1";"1";"2";"1";"1";"2014-07-17 17:58:46.451";"2014-07-17 18:14:04.044";"1";"1";"1";"61";"60";"module.training_block2.exec-2156.GoNoGo2";;;;;;;;;;;;;;;;;;;;;;;;;;;;;;;;;;;"1260";"2014-07-17 18:03:19.529";"NST_correctLoc";"35";"1";"FINISHED";"RIGHT";"success";"375";"0";"2014-07-17 18:03:18.266";"3";;;;;;;;;;;;;;;;;;;;;;;;;;;;;;;;;;;;;;;;;;;;;
"On my own";"1993";;"Windows 7";"Rachel's Experiment (D.T.)";"1.0";"2";"1";"1";"2";"1";"1";"2014-07-17 17:58:46.451";"2014-07-17 18:14:04.044";"1";"1";"1";"62";"61";"module.training_block2.exec-2156.GoNoGo2";;;;;;;;;;;;;;;;;;;;;;;;;;;;;;;;;;;"1253";"2014-07-17 18:03:22.088";"NST_correctLoc";"12";"0";"FINISHED";"LEFT";"success";"469";"0";"2014-07-17 18:03:20.824";"2";;;;;;;;;;;;;;;;;;;;;;;;;;;;;;;;;;;;;;;;;;;;;
"On my own";"1993";;"Windows 7";"Rachel's Experiment (D.T.)";"1.0";"2";"1";"1";"2";"1";"1";"2014-07-17 17:58:46.451";"2014-07-17 18:14:04.044";"1";"1";"1";"63";"62";"module.training_block2.exec-2156.GoNoGo2";;;;;;;;;;;;;;;;;;;;;;;;;;;;;;;;;;;"1253";"2014-07-17 18:03:24.646";"ST_correctStop";"24";"0";"FINISHED";"NONE";"success";"0";"1";"2014-07-17 18:03:23.383";"3";;;;;;;;;;;;;;;;;;;;;;;;;;;;;;;;;;;;;;;;;;;;;
"On my own";"1993";;"Windows 7";"Rachel's Experiment (D.T.)";"1.0";"2";"1";"1";"2";"1";"1";"2014-07-17 17:58:46.451";"2014-07-17 18:14:04.044";"1";"1";"1";"64";"63";"module.training_block2.exec-2156.GoNoGo2";;;;;;;;;;;;;;;;;;;;;;;;;;;;;;;;;;;"1253";"2014-07-17 18:03:27.205";"ST_correctStop";"33";"0";"FINISHED";"NONE";"success";"0";"1";"2014-07-17 18:03:25.941";"3";;;;;;;;;;;;;;;;;;;;;;;;;;;;;;;;;;;;;;;;;;;;;
"On my own";"1993";;"Windows 7";"Rachel's Experiment (D.T.)";"1.0";"2";"1";"1";"2";"1";"1";"2014-07-17 17:58:46.451";"2014-07-17 18:14:04.044";"1";"1";"1";"65";"64";"module.training_block2.exec-2156.GoNoGo2";;;;;;;;;;;;;;;;;;;;;;;;;;;;;;;;;;;"1252";"2014-07-17 18:03:29.763";"NST_correctLoc";"14";"0";"FINISHED";"LEFT";"success";"480";"0";"2014-07-17 18:03:28.499";"2";;;;;;;;;;;;;;;;;;;;;;;;;;;;;;;;;;;;;;;;;;;;;
"On my own";"1993";;"Windows 7";"Rachel's Experiment (D.T.)";"1.0";"2";"1";"1";"2";"1";"1";"2014-07-17 17:58:46.451";"2014-07-17 18:14:04.044";"1";"1";"1";"66";"65";"module.training_block2.exec-2156.GoNoGo2";;;;;;;;;;;;;;;;;;;;;;;;;;;;;;;;;;;"1254";"2014-07-17 18:03:32.321";"NST_correctLoc";"31";"1";"FINISHED";"RIGHT";"success";"391";"0";"2014-07-17 18:03:31.058";"3";;;;;;;;;;;;;;;;;;;;;;;;;;;;;;;;;;;;;;;;;;;;;
"On my own";"1993";;"Windows 7";"Rachel's Experiment (D.T.)";"1.0";"2";"1";"1";"2";"1";"1";"2014-07-17 17:58:46.451";"2014-07-17 18:14:04.044";"1";"1";"1";"67";"66";"module.training_block2.exec-2156.GoNoGo2";;;;;;;;;;;;;;;;;;;;;;;;;;;;;;;;;;;"1254";"2014-07-17 18:03:34.880";"NST_correctLoc";"9";"0";"FINISHED";"LEFT";"success";"406";"0";"2014-07-17 18:03:33.616";"2";;;;;;;;;;;;;;;;;;;;;;;;;;;;;;;;;;;;;;;;;;;;;
"On my own";"1993";;"Windows 7";"Rachel's Experiment (D.T.)";"1.0";"2";"1";"1";"2";"1";"1";"2014-07-17 17:58:46.451";"2014-07-17 18:14:04.044";"1";"1";"1";"68";"67";"module.training_block2.exec-2156.GoNoGo2";;;;;;;;;;;;;;;;;;;;;;;;;;;;;;;;;;;"1254";"2014-07-17 18:03:37.438";"NST_correctLoc";"26";"1";"FINISHED";"RIGHT";"success";"376";"0";"2014-07-17 18:03:36.175";"3";;;;;;;;;;;;;;;;;;;;;;;;;;;;;;;;;;;;;;;;;;;;;
"On my own";"1993";;"Windows 7";"Rachel's Experiment (D.T.)";"1.0";"2";"1";"1";"2";"1";"1";"2014-07-17 17:58:46.451";"2014-07-17 18:14:04.044";"1";"1";"1";"69";"68";"module.training_block2.exec-2156.GoNoGo2";;;;;;;;;;;;;;;;;;;;;;;;;;;;;;;;;;;"1260";"2014-07-17 18:03:39.997";"NST_correctLoc";"10";"1";"FINISHED";"RIGHT";"success";"442";"0";"2014-07-17 18:03:38.733";"2";;;;;;;;;;;;;;;;;;;;;;;;;;;;;;;;;;;;;;;;;;;;;
"On my own";"1993";;"Windows 7";"Rachel's Experiment (D.T.)";"1.0";"2";"1";"1";"2";"1";"1";"2014-07-17 17:58:46.451";"2014-07-17 18:14:04.044";"1";"1";"1";"70";"69";"module.training_block2.exec-2156.GoNoGo2";;;;;;;;;;;;;;;;;;;;;;;;;;;;;;;;;;;"1253";"2014-07-17 18:03:42.555";"ST_correctStop";"30";"0";"FINISHED";"NONE";"success";"0";"1";"2014-07-17 18:03:41.291";"3";;;;;;;;;;;;;;;;;;;;;;;;;;;;;;;;;;;;;;;;;;;;;
"On my own";"1993";;"Windows 7";"Rachel's Experiment (D.T.)";"1.0";"2";"1";"1";"2";"1";"1";"2014-07-17 17:58:46.451";"2014-07-17 18:14:04.044";"1";"1";"1";"71";"70";"module.training_block2.exec-2156.GoNoGo2";;;;;;;;;;;;;;;;;;;;;;;;;;;;;;;;;;;"1254";"2014-07-17 18:03:45.113";"NST_correctLoc";"16";"1";"FINISHED";"RIGHT";"success";"418";"0";"2014-07-17 18:03:43.850";"2";;;;;;;;;;;;;;;;;;;;;;;;;;;;;;;;;;;;;;;;;;;;;
"On my own";"1993";;"Windows 7";"Rachel's Experiment (D.T.)";"1.0";"2";"1";"1";"2";"1";"1";"2014-07-17 17:58:46.451";"2014-07-17 18:14:04.044";"1";"1";"1";"72";"71";"module.training_block2.exec-2156.GoNoGo2";;;;;;;;;;;;;;;;;;;;;;;;;;;;;;;;;;;"1255";"2014-07-17 18:03:47.656";"ST_correctStop";"34";"1";"FINISHED";"NONE";"success";"0";"1";"2014-07-17 18:03:46.393";"3";;;;;;;;;;;;;;;;;;;;;;;;;;;;;;;;;;;;;;;;;;;;;
"On my own";"1993";;"Windows 7";"Rachel's Experiment (D.T.)";"1.0";"2";"1";"1";"2";"1";"1";"2014-07-17 17:58:46.451";"2014-07-17 18:14:04.044";"1";"1";"1";"73";"72";"module.training_block2.exec-2156.GoNoGo2";;;;;;;;;;;;;;;;;;;;;;;;;;;;;;;;;;;"1253";"2014-07-17 18:03:50.215";"NST_correctLoc";"13";"0";"FINISHED";"LEFT";"success";"368";"0";"2014-07-17 18:03:48.951";"2";;;;;;;;;;;;;;;;;;;;;;;;;;;;;;;;;;;;;;;;;;;;;
"On my own";"1993";;"Windows 7";"Rachel's Experiment (D.T.)";"1.0";"2";"1";"1";"2";"1";"1";"2014-07-17 17:58:46.451";"2014-07-17 18:14:04.044";"1";"1";"1";"74";"73";"module.training_block2.exec-2156.GoNoGo2";;;;;;;;;;;;;;;;;;;;;;;;;;;;;;;;;;;"1262";"2014-07-17 18:03:52.773";"ST_correctStop";"3";"1";"FINISHED";"NONE";"success";"0";"1";"2014-07-17 18:03:51.509";"1";;;;;;;;;;;;;;;;;;;;;;;;;;;;;;;;;;;;;;;;;;;;;
"On my own";"1993";;"Windows 7";"Rachel's Experiment (D.T.)";"1.0";"2";"1";"1";"2";"1";"1";"2014-07-17 17:58:46.451";"2014-07-17 18:14:04.044";"1";"1";"1";"75";"74";"module.training_block2.exec-2156.GoNoGo2";;;;;;;;;;;;;;;;;;;;;;;;;;;;;;;;;;;"1249";"2014-07-17 18:03:55.331";"ST_correctStop";"0";"0";"FINISHED";"NONE";"success";"0";"1";"2014-07-17 18:03:54.068";"1";;;;;;;;;;;;;;;;;;;;;;;;;;;;;;;;;;;;;;;;;;;;;
"On my own";"1993";;"Windows 7";"Rachel's Experiment (D.T.)";"1.0";"2";"1";"1";"2";"1";"1";"2014-07-17 17:58:46.451";"2014-07-17 18:14:04.044";"1";"1";"1";"76";"75";"module.training_block2.exec-2156.GoNoGo2";;;;;;;;;;;;;;;;;;;;;;;;;;;;;;;;;;;"1254";"2014-07-17 18:03:57.874";"ST_correctStop";"21";"1";"FINISHED";"NONE";"success";"0";"1";"2014-07-17 18:03:56.611";"3";;;;;;;;;;;;;;;;;;;;;;;;;;;;;;;;;;;;;;;;;;;;;
"On my own";"1993";;"Windows 7";"Rachel's Experiment (D.T.)";"1.0";"2";"1";"1";"2";"1";"1";"2014-07-17 17:58:46.451";"2014-07-17 18:14:04.044";"1";"1";"1";"77";"76";"module.training_block2.exec-2156.GoNoGo2";;;;;;;;;;;;;;;;;;;;;;;;;;;;;;;;;;;"1254";"2014-07-17 18:04:00.417";"ST_correctStop";"25";"1";"FINISHED";"NONE";"success";"0";"1";"2014-07-17 18:03:59.153";"3";;;;;;;;;;;;;;;;;;;;;;;;;;;;;;;;;;;;;;;;;;;;;
"On my own";"1993";;"Windows 7";"Rachel's Experiment (D.T.)";"1.0";"2";"1";"1";"2";"1";"1";"2014-07-17 17:58:46.451";"2014-07-17 18:14:04.044";"1";"1";"1";"78";"77";"module.training_block2.exec-2156.GoNoGo2";;;;;;;;;;;;;;;;;;;;;;;;;;;;;;;;;;;"1260";"2014-07-17 18:04:02.960";"NST_correctLoc";"17";"0";"FINISHED";"LEFT";"success";"492";"0";"2014-07-17 18:04:01.696";"2";;;;;;;;;;;;;;;;;;;;;;;;;;;;;;;;;;;;;;;;;;;;;
"On my own";"1993";;"Windows 7";"Rachel's Experiment (D.T.)";"1.0";"2";"1";"1";"2";"1";"1";"2014-07-17 17:58:46.451";"2014-07-17 18:14:04.044";"1";"1";"1";"79";"78";"module.training_block2.exec-2156.GoNoGo2";;;;;;;;;;;;;;;;;;;;;;;;;;;;;;;;;;;"1257";"2014-07-17 18:04:05.503";"NST_correctLoc";"23";"0";"FINISHED";"LEFT";"success";"478";"0";"2014-07-17 18:04:04.239";"3";;;;;;;;;;;;;;;;;;;;;;;;;;;;;;;;;;;;;;;;;;;;;
"On my own";"1993";;"Windows 7";"Rachel's Experiment (D.T.)";"1.0";"2";"1";"1";"2";"1";"1";"2014-07-17 17:58:46.451";"2014-07-17 18:14:04.044";"1";"1";"1";"80";"79";"module.training_block2.exec-2156.GoNoGo2";;;;;;;;;;;;;;;;;;;;;;;;;;;;;;;;;;;"1257";"2014-07-17 18:04:08.045";"ST_correctStop";"32";"1";"FINISHED";"NONE";"success";"0";"1";"2014-07-17 18:04:06.782";"3";;;;;;;;;;;;;;;;;;;;;;;;;;;;;;;;;;;;;;;;;;;;;
"On my own";"1993";;"Windows 7";"Rachel's Experiment (D.T.)";"1.0";"2";"1";"1";"2";"1";"1";"2014-07-17 17:58:46.451";"2014-07-17 18:14:04.044";"1";"1";"1";"81";"80";"module.training_block2.exec-2156.GoNoGo2";;;;;;;;;;;;;;;;;;;;;;;;;;;;;;;;;;;"1258";"2014-07-17 18:04:10.588";"ST_correctStop";"22";"0";"FINISHED";"NONE";"success";"0";"1";"2014-07-17 18:04:09.325";"3";;;;;;;;;;;;;;;;;;;;;;;;;;;;;;;;;;;;;;;;;;;;;
"On my own";"1993";;"Windows 7";"Rachel's Experiment (D.T.)";"1.0";"2";"1";"1";"2";"1";"1";"2014-07-17 17:58:46.451";"2014-07-17 18:14:04.044";"1";"1";"1";"82";"81";"module.training_block2.exec-2156.GoNoGo2";;;;;;;;;;;;;;;;;;;;;;;;;;;;;;;;;;;"1253";"2014-07-17 18:04:13.131";"ST_correctStop";"4";"1";"FINISHED";"NONE";"success";"0";"1";"2014-07-17 18:04:11.867";"1";;;;;;;;;;;;;;;;;;;;;;;;;;;;;;;;;;;;;;;;;;;;;
"On my own";"1993";;"Windows 7";"Rachel's Experiment (D.T.)";"1.0";"2";"1";"1";"2";"1";"1";"2014-07-17 17:58:46.451";"2014-07-17 18:14:04.044";"1";"1";"1";"83";"82";"module.training_block2.exec-2156.GoNoGo2";;;;;;;;;;;;;;;;;;;;;;;;;;;;;;;;;;;"1255";"2014-07-17 18:04:15.674";"ST_correctStop";"1";"0";"FINISHED";"NONE";"success";"0";"1";"2014-07-17 18:04:14.410";"1";;;;;;;;;;;;;;;;;;;;;;;;;;;;;;;;;;;;;;;;;;;;;
"On my own";"1993";;"Windows 7";"Rachel's Experiment (D.T.)";"1.0";"2";"1";"1";"2";"1";"1";"2014-07-17 17:58:46.451";"2014-07-17 18:14:04.044";"1";"1";"1";"84";"83";"module.training_block2.exec-2156.GoNoGo2";;;;;;;;;;;;;;;;;;;;;;;;;;;;;;;;;;;"1258";"2014-07-17 18:04:18.217";"ST_correctStop";"5";"1";"FINISHED";"NONE";"success";"0";"1";"2014-07-17 18:04:16.953";"1";;;;;;;;;;;;;;;;;;;;;;;;;;;;;;;;;;;;;;;;;;;;;
"On my own";"1993";;"Windows 7";"Rachel's Experiment (D.T.)";"1.0";"2";"1";"1";"2";"1";"1";"2014-07-17 17:58:46.451";"2014-07-17 18:14:04.044";"1";"1";"1";"85";"84";"module.training_block2.exec-2156.GoNoGo2";;;;;;;;;;;;;;;;;;;;;;;;;;;;;;;;;;;"1254";"2014-07-17 18:04:20.759";"ST_correctStop";"7";"1";"FINISHED";"NONE";"success";"0";"1";"2014-07-17 18:04:19.496";"1";;;;;;;;;;;;;;;;;;;;;;;;;;;;;;;;;;;;;;;;;;;;;
"On my own";"1993";;"Windows 7";"Rachel's Experiment (D.T.)";"1.0";"2";"1";"1";"2";"1";"1";"2014-07-17 17:58:46.451";"2014-07-17 18:14:04.044";"1";"1";"1";"86";"85";"module.training_block2.exec-2156.GoNoGo2";;;;;;;;;;;;;;;;;;;;;;;;;;;;;;;;;;;"1258";"2014-07-17 18:04:23.302";"NST_correctLoc";"15";"1";"FINISHED";"RIGHT";"success";"472";"0";"2014-07-17 18:04:22.039";"2";;;;;;;;;;;;;;;;;;;;;;;;;;;;;;;;;;;;;;;;;;;;;
"On my own";"1993";;"Windows 7";"Rachel's Experiment (D.T.)";"1.0";"2";"1";"1";"2";"1";"1";"2014-07-17 17:58:46.451";"2014-07-17 18:14:04.044";"1";"1";"1";"87";"86";"module.training_block2.exec-2156.GoNoGo2";;;;;;;;;;;;;;;;;;;;;;;;;;;;;;;;;;;"1258";"2014-07-17 18:04:25.845";"NST_correctLoc";"20";"0";"FINISHED";"LEFT";"success";"411";"0";"2014-07-17 18:04:24.581";"3";;;;;;;;;;;;;;;;;;;;;;;;;;;;;;;;;;;;;;;;;;;;;
"On my own";"1993";;"Windows 7";"Rachel's Experiment (D.T.)";"1.0";"2";"1";"1";"2";"1";"1";"2014-07-17 17:58:46.451";"2014-07-17 18:14:04.044";"1";"1";"1";"88";"87";"module.training_block3.exec-5859.GoNoGo3";;;;;;;;;;;;;;;;;;;;;;;;;;;;;;;;;;;;;;;;;;;;;;;"1253";"2014-07-17 18:04:36.718";"ST_correctStop";"19";"0";"FINISHED";"NONE";"success";"0";"1";"2014-07-17 18:04:35.455";"3";;;;;;;;;;;;;;;;;;;;;;;;;;;;;;;;;
"On my own";"1993";;"Windows 7";"Rachel's Experiment (D.T.)";"1.0";"2";"1";"1";"2";"1";"1";"2014-07-17 17:58:46.451";"2014-07-17 18:14:04.044";"1";"1";"1";"89";"88";"module.training_block3.exec-5859.GoNoGo3";;;;;;;;;;;;;;;;;;;;;;;;;;;;;;;;;;;;;;;;;;;;;;;"1260";"2014-07-17 18:04:39.277";"NST_correctLoc";"25";"0";"FINISHED";"LEFT";"success";"492";"0";"2014-07-17 18:04:38.013";"3";;;;;;;;;;;;;;;;;;;;;;;;;;;;;;;;;
"On my own";"1993";;"Windows 7";"Rachel's Experiment (D.T.)";"1.0";"2";"1";"1";"2";"1";"1";"2014-07-17 17:58:46.451";"2014-07-17 18:14:04.044";"1";"1";"1";"90";"89";"module.training_block3.exec-5859.GoNoGo3";;;;;;;;;;;;;;;;;;;;;;;;;;;;;;;;;;;;;;;;;;;;;;;"1262";"2014-07-17 18:04:41.835";"NST_correctLoc";"22";"0";"FINISHED";"LEFT";"success";"535";"0";"2014-07-17 18:04:40.571";"3";;;;;;;;;;;;;;;;;;;;;;;;;;;;;;;;;
"On my own";"1993";;"Windows 7";"Rachel's Experiment (D.T.)";"1.0";"2";"1";"1";"2";"1";"1";"2014-07-17 17:58:46.451";"2014-07-17 18:14:04.044";"1";"1";"1";"91";"90";"module.training_block3.exec-5859.GoNoGo3";;;;;;;;;;;;;;;;;;;;;;;;;;;;;;;;;;;;;;;;;;;;;;;"1262";"2014-07-17 18:04:44.362";"ST_correctStop";"1";"1";"FINISHED";"NONE";"success";"0";"1";"2014-07-17 18:04:43.099";"1";;;;;;;;;;;;;;;;;;;;;;;;;;;;;;;;;
"On my own";"1993";;"Windows 7";"Rachel's Experiment (D.T.)";"1.0";"2";"1";"1";"2";"1";"1";"2014-07-17 17:58:46.451";"2014-07-17 18:14:04.044";"1";"1";"1";"92";"91";"module.training_block3.exec-5859.GoNoGo3";;;;;;;;;;;;;;;;;;;;;;;;;;;;;;;;;;;;;;;;;;;;;;;"1262";"2014-07-17 18:04:46.905";"NST_correctLoc";"12";"1";"FINISHED";"RIGHT";"success";"512";"0";"2014-07-17 18:04:45.641";"2";;;;;;;;;;;;;;;;;;;;;;;;;;;;;;;;;
"On my own";"1993";;"Windows 7";"Rachel's Experiment (D.T.)";"1.0";"2";"1";"1";"2";"1";"1";"2014-07-17 17:58:46.451";"2014-07-17 18:14:04.044";"1";"1";"1";"93";"92";"module.training_block3.exec-5859.GoNoGo3";;;;;;;;;;;;;;;;;;;;;;;;;;;;;;;;;;;;;;;;;;;;;;;"1262";"2014-07-17 18:04:49.448";"ST_correctStop";"31";"0";"FINISHED";"NONE";"success";"0";"1";"2014-07-17 18:04:48.184";"3";;;;;;;;;;;;;;;;;;;;;;;;;;;;;;;;;
"On my own";"1993";;"Windows 7";"Rachel's Experiment (D.T.)";"1.0";"2";"1";"1";"2";"1";"1";"2014-07-17 17:58:46.451";"2014-07-17 18:14:04.044";"1";"1";"1";"94";"93";"module.training_block3.exec-5859.GoNoGo3";;;;;;;;;;;;;;;;;;;;;;;;;;;;;;;;;;;;;;;;;;;;;;;"1262";"2014-07-17 18:04:51.991";"ST_correctStop";"6";"1";"FINISHED";"NONE";"success";"0";"1";"2014-07-17 18:04:50.727";"1";;;;;;;;;;;;;;;;;;;;;;;;;;;;;;;;;
"On my own";"1993";;"Windows 7";"Rachel's Experiment (D.T.)";"1.0";"2";"1";"1";"2";"1";"1";"2014-07-17 17:58:46.451";"2014-07-17 18:14:04.044";"1";"1";"1";"95";"94";"module.training_block3.exec-5859.GoNoGo3";;;;;;;;;;;;;;;;;;;;;;;;;;;;;;;;;;;;;;;;;;;;;;;"1260";"2014-07-17 18:04:54.549";"NST_correctLoc";"30";"1";"FINISHED";"RIGHT";"success";"434";"0";"2014-07-17 18:04:53.285";"3";;;;;;;;;;;;;;;;;;;;;;;;;;;;;;;;;
"On my own";"1993";;"Windows 7";"Rachel's Experiment (D.T.)";"1.0";"2";"1";"1";"2";"1";"1";"2014-07-17 17:58:46.451";"2014-07-17 18:14:04.044";"1";"1";"1";"96";"95";"module.training_block3.exec-5859.GoNoGo3";;;;;;;;;;;;;;;;;;;;;;;;;;;;;;;;;;;;;;;;;;;;;;;"1260";"2014-07-17 18:04:57.092";"NST_correctLoc";"17";"1";"FINISHED";"RIGHT";"success";"457";"0";"2014-07-17 18:04:55.828";"2";;;;;;;;;;;;;;;;;;;;;;;;;;;;;;;;;
"On my own";"1993";;"Windows 7";"Rachel's Experiment (D.T.)";"1.0";"2";"1";"1";"2";"1";"1";"2014-07-17 17:58:46.451";"2014-07-17 18:14:04.044";"1";"1";"1";"97";"96";"module.training_block3.exec-5859.GoNoGo3";;;;;;;;;;;;;;;;;;;;;;;;;;;;;;;;;;;;;;;;;;;;;;;"1260";"2014-07-17 18:04:59.650";"NST_correctLoc";"13";"1";"FINISHED";"RIGHT";"success";"466";"0";"2014-07-17 18:04:58.387";"2";;;;;;;;;;;;;;;;;;;;;;;;;;;;;;;;;
"On my own";"1993";;"Windows 7";"Rachel's Experiment (D.T.)";"1.0";"2";"1";"1";"2";"1";"1";"2014-07-17 17:58:46.451";"2014-07-17 18:14:04.044";"1";"1";"1";"98";"97";"module.training_block3.exec-5859.GoNoGo3";;;;;;;;;;;;;;;;;;;;;;;;;;;;;;;;;;;;;;;;;;;;;;;"1260";"2014-07-17 18:05:02.209";"NST_correctLoc";"11";"1";"FINISHED";"RIGHT";"success";"394";"0";"2014-07-17 18:05:00.945";"2";;;;;;;;;;;;;;;;;;;;;;;;;;;;;;;;;
"On my own";"1993";;"Windows 7";"Rachel's Experiment (D.T.)";"1.0";"2";"1";"1";"2";"1";"1";"2014-07-17 17:58:46.451";"2014-07-17 18:14:04.044";"1";"1";"1";"99";"98";"module.training_block3.exec-5859.GoNoGo3";;;;;;;;;;;;;;;;;;;;;;;;;;;;;;;;;;;;;;;;;;;;;;;"1261";"2014-07-17 18:05:04.751";"ST_correctStop";"28";"1";"FINISHED";"NONE";"success";"0";"1";"2014-07-17 18:05:03.488";"3";;;;;;;;;;;;;;;;;;;;;;;;;;;;;;;;;
"On my own";"1993";;"Windows 7";"Rachel's Experiment (D.T.)";"1.0";"2";"1";"1";"2";"1";"1";"2014-07-17 17:58:46.451";"2014-07-17 18:14:04.044";"1";"1";"1";"100";"99";"module.training_block3.exec-5859.GoNoGo3";;;;;;;;;;;;;;;;;;;;;;;;;;;;;;;;;;;;;;;;;;;;;;;"1260";"2014-07-17 18:05:07.294";"ST_correctStop";"3";"0";"FINISHED";"NONE";"success";"0";"1";"2014-07-17 18:05:06.031";"1";;;;;;;;;;;;;;;;;;;;;;;;;;;;;;;;;
"On my own";"1993";;"Windows 7";"Rachel's Experiment (D.T.)";"1.0";"2";"1";"1";"2";"1";"1";"2014-07-17 17:58:46.451";"2014-07-17 18:14:04.044";"1";"1";"1";"101";"100";"module.training_block3.exec-5859.GoNoGo3";;;;;;;;;;;;;;;;;;;;;;;;;;;;;;;;;;;;;;;;;;;;;;;"1260";"2014-07-17 18:05:09.853";"ST_correctStop";"4";"0";"FINISHED";"NONE";"success";"0";"1";"2014-07-17 18:05:08.589";"1";;;;;;;;;;;;;;;;;;;;;;;;;;;;;;;;;
"On my own";"1993";;"Windows 7";"Rachel's Experiment (D.T.)";"1.0";"2";"1";"1";"2";"1";"1";"2014-07-17 17:58:46.451";"2014-07-17 18:14:04.044";"1";"1";"1";"102";"101";"module.training_block3.exec-5859.GoNoGo3";;;;;;;;;;;;;;;;;;;;;;;;;;;;;;;;;;;;;;;;;;;;;;;"1259";"2014-07-17 18:05:12.395";"NST_correctLoc";"24";"0";"FINISHED";"LEFT";"success";"508";"0";"2014-07-17 18:05:11.132";"3";;;;;;;;;;;;;;;;;;;;;;;;;;;;;;;;;
"On my own";"1993";;"Windows 7";"Rachel's Experiment (D.T.)";"1.0";"2";"1";"1";"2";"1";"1";"2014-07-17 17:58:46.451";"2014-07-17 18:14:04.044";"1";"1";"1";"103";"102";"module.training_block3.exec-5859.GoNoGo3";;;;;;;;;;;;;;;;;;;;;;;;;;;;;;;;;;;;;;;;;;;;;;;"1262";"2014-07-17 18:05:14.954";"ST_correctStop";"23";"1";"FINISHED";"NONE";"success";"0";"1";"2014-07-17 18:05:13.690";"3";;;;;;;;;;;;;;;;;;;;;;;;;;;;;;;;;
"On my own";"1993";;"Windows 7";"Rachel's Experiment (D.T.)";"1.0";"2";"1";"1";"2";"1";"1";"2014-07-17 17:58:46.451";"2014-07-17 18:14:04.044";"1";"1";"1";"104";"103";"module.training_block3.exec-5859.GoNoGo3";;;;;;;;;;;;;;;;;;;;;;;;;;;;;;;;;;;;;;;;;;;;;;;"1262";"2014-07-17 18:05:17.497";"ST_correctStop";"34";"1";"FINISHED";"NONE";"success";"0";"1";"2014-07-17 18:05:16.233";"3";;;;;;;;;;;;;;;;;;;;;;;;;;;;;;;;;
"On my own";"1993";;"Windows 7";"Rachel's Experiment (D.T.)";"1.0";"2";"1";"1";"2";"1";"1";"2014-07-17 17:58:46.451";"2014-07-17 18:14:04.044";"1";"1";"1";"105";"104";"module.training_block3.exec-5859.GoNoGo3";;;;;;;;;;;;;;;;;;;;;;;;;;;;;;;;;;;;;;;;;;;;;;;"1262";"2014-07-17 18:05:20.040";"ST_correctStop";"5";"1";"FINISHED";"NONE";"success";"0";"1";"2014-07-17 18:05:18.776";"1";;;;;;;;;;;;;;;;;;;;;;;;;;;;;;;;;
"On my own";"1993";;"Windows 7";"Rachel's Experiment (D.T.)";"1.0";"2";"1";"1";"2";"1";"1";"2014-07-17 17:58:46.451";"2014-07-17 18:14:04.044";"1";"1";"1";"106";"105";"module.training_block3.exec-5859.GoNoGo3";;;;;;;;;;;;;;;;;;;;;;;;;;;;;;;;;;;;;;;;;;;;;;;"1260";"2014-07-17 18:05:22.598";"ST_correctStop";"33";"1";"FINISHED";"NONE";"success";"0";"1";"2014-07-17 18:05:21.334";"3";;;;;;;;;;;;;;;;;;;;;;;;;;;;;;;;;
"On my own";"1993";;"Windows 7";"Rachel's Experiment (D.T.)";"1.0";"2";"1";"1";"2";"1";"1";"2014-07-17 17:58:46.451";"2014-07-17 18:14:04.044";"1";"1";"1";"107";"106";"module.training_block3.exec-5859.GoNoGo3";;;;;;;;;;;;;;;;;;;;;;;;;;;;;;;;;;;;;;;;;;;;;;;"1260";"2014-07-17 18:05:25.156";"NST_correctLoc";"16";"0";"FINISHED";"LEFT";"success";"449";"0";"2014-07-17 18:05:23.893";"2";;;;;;;;;;;;;;;;;;;;;;;;;;;;;;;;;
"On my own";"1993";;"Windows 7";"Rachel's Experiment (D.T.)";"1.0";"2";"1";"1";"2";"1";"1";"2014-07-17 17:58:46.451";"2014-07-17 18:14:04.044";"1";"1";"1";"108";"107";"module.training_block3.exec-5859.GoNoGo3";;;;;;;;;;;;;;;;;;;;;;;;;;;;;;;;;;;;;;;;;;;;;;;"1260";"2014-07-17 18:05:27.699";"NST_correctLoc";"27";"1";"FINISHED";"RIGHT";"success";"473";"0";"2014-07-17 18:05:26.436";"3";;;;;;;;;;;;;;;;;;;;;;;;;;;;;;;;;
"On my own";"1993";;"Windows 7";"Rachel's Experiment (D.T.)";"1.0";"2";"1";"1";"2";"1";"1";"2014-07-17 17:58:46.451";"2014-07-17 18:14:04.044";"1";"1";"1";"109";"108";"module.training_block3.exec-5859.GoNoGo3";;;;;;;;;;;;;;;;;;;;;;;;;;;;;;;;;;;;;;;;;;;;;;;"1260";"2014-07-17 18:05:30.258";"NST_correctLoc";"26";"0";"FINISHED";"LEFT";"success";"435";"0";"2014-07-17 18:05:28.994";"3";;;;;;;;;;;;;;;;;;;;;;;;;;;;;;;;;
"On my own";"1993";;"Windows 7";"Rachel's Experiment (D.T.)";"1.0";"2";"1";"1";"2";"1";"1";"2014-07-17 17:58:46.451";"2014-07-17 18:14:04.044";"1";"1";"1";"110";"109";"module.training_block3.exec-5859.GoNoGo3";;;;;;;;;;;;;;;;;;;;;;;;;;;;;;;;;;;;;;;;;;;;;;;"1262";"2014-07-17 18:05:32.800";"NST_correctLoc";"18";"1";"FINISHED";"RIGHT";"success";"380";"0";"2014-07-17 18:05:31.537";"3";;;;;;;;;;;;;;;;;;;;;;;;;;;;;;;;;
"On my own";"1993";;"Windows 7";"Rachel's Experiment (D.T.)";"1.0";"2";"1";"1";"2";"1";"1";"2014-07-17 17:58:46.451";"2014-07-17 18:14:04.044";"1";"1";"1";"111";"110";"module.training_block3.exec-5859.GoNoGo3";;;;;;;;;;;;;;;;;;;;;;;;;;;;;;;;;;;;;;;;;;;;;;;"1260";"2014-07-17 18:05:35.343";"NST_correctLoc";"10";"0";"FINISHED";"LEFT";"success";"410";"0";"2014-07-17 18:05:34.080";"2";;;;;;;;;;;;;;;;;;;;;;;;;;;;;;;;;
"On my own";"1993";;"Windows 7";"Rachel's Experiment (D.T.)";"1.0";"2";"1";"1";"2";"1";"1";"2014-07-17 17:58:46.451";"2014-07-17 18:14:04.044";"1";"1";"1";"112";"111";"module.training_block3.exec-5859.GoNoGo3";;;;;;;;;;;;;;;;;;;;;;;;;;;;;;;;;;;;;;;;;;;;;;;"1260";"2014-07-17 18:05:37.902";"NST_correctLoc";"32";"0";"FINISHED";"LEFT";"success";"499";"0";"2014-07-17 18:05:36.638";"3";;;;;;;;;;;;;;;;;;;;;;;;;;;;;;;;;
"On my own";"1993";;"Windows 7";"Rachel's Experiment (D.T.)";"1.0";"2";"1";"1";"2";"1";"1";"2014-07-17 17:58:46.451";"2014-07-17 18:14:04.044";"1";"1";"1";"113";"112";"module.training_block3.exec-5859.GoNoGo3";;;;;;;;;;;;;;;;;;;;;;;;;;;;;;;;;;;;;;;;;;;;;;;"1260";"2014-07-17 18:05:40.460";"NST_correctLoc";"14";"1";"FINISHED";"RIGHT";"success";"463";"0";"2014-07-17 18:05:39.196";"2";;;;;;;;;;;;;;;;;;;;;;;;;;;;;;;;;
"On my own";"1993";;"Windows 7";"Rachel's Experiment (D.T.)";"1.0";"2";"1";"1";"2";"1";"1";"2014-07-17 17:58:46.451";"2014-07-17 18:14:04.044";"1";"1";"1";"114";"113";"module.training_block3.exec-5859.GoNoGo3";;;;;;;;;;;;;;;;;;;;;;;;;;;;;;;;;;;;;;;;;;;;;;;"1260";"2014-07-17 18:05:43.018";"NST_correctLoc";"15";"0";"FINISHED";"LEFT";"success";"442";"0";"2014-07-17 18:05:41.755";"2";;;;;;;;;;;;;;;;;;;;;;;;;;;;;;;;;
"On my own";"1993";;"Windows 7";"Rachel's Experiment (D.T.)";"1.0";"2";"1";"1";"2";"1";"1";"2014-07-17 17:58:46.451";"2014-07-17 18:14:04.044";"1";"1";"1";"115";"114";"module.training_block3.exec-5859.GoNoGo3";;;;;;;;;;;;;;;;;;;;;;;;;;;;;;;;;;;;;;;;;;;;;;;"1260";"2014-07-17 18:05:45.577";"NST_correctLoc";"9";"1";"FINISHED";"RIGHT";"success";"427";"0";"2014-07-17 18:05:44.313";"2";;;;;;;;;;;;;;;;;;;;;;;;;;;;;;;;;
"On my own";"1993";;"Windows 7";"Rachel's Experiment (D.T.)";"1.0";"2";"1";"1";"2";"1";"1";"2014-07-17 17:58:46.451";"2014-07-17 18:14:04.044";"1";"1";"1";"116";"115";"module.training_block3.exec-5859.GoNoGo3";;;;;;;;;;;;;;;;;;;;;;;;;;;;;;;;;;;;;;;;;;;;;;;"1262";"2014-07-17 18:05:48.120";"ST_correctStop";"29";"1";"FINISHED";"NONE";"success";"0";"1";"2014-07-17 18:05:46.856";"3";;;;;;;;;;;;;;;;;;;;;;;;;;;;;;;;;
"On my own";"1993";;"Windows 7";"Rachel's Experiment (D.T.)";"1.0";"2";"1";"1";"2";"1";"1";"2014-07-17 17:58:46.451";"2014-07-17 18:14:04.044";"1";"1";"1";"117";"116";"module.training_block3.exec-5859.GoNoGo3";;;;;;;;;;;;;;;;;;;;;;;;;;;;;;;;;;;;;;;;;;;;;;;"1262";"2014-07-17 18:05:50.678";"ST_correctStop";"0";"1";"FINISHED";"NONE";"success";"0";"1";"2014-07-17 18:05:49.414";"1";;;;;;;;;;;;;;;;;;;;;;;;;;;;;;;;;
"On my own";"1993";;"Windows 7";"Rachel's Experiment (D.T.)";"1.0";"2";"1";"1";"2";"1";"1";"2014-07-17 17:58:46.451";"2014-07-17 18:14:04.044";"1";"1";"1";"118";"117";"module.training_block3.exec-5859.GoNoGo3";;;;;;;;;;;;;;;;;;;;;;;;;;;;;;;;;;;;;;;;;;;;;;;"1260";"2014-07-17 18:05:53.236";"NST_correctLoc";"35";"1";"FINISHED";"RIGHT";"success";"512";"0";"2014-07-17 18:05:51.973";"3";;;;;;;;;;;;;;;;;;;;;;;;;;;;;;;;;
"On my own";"1993";;"Windows 7";"Rachel's Experiment (D.T.)";"1.0";"2";"1";"1";"2";"1";"1";"2014-07-17 17:58:46.451";"2014-07-17 18:14:04.044";"1";"1";"1";"119";"118";"module.training_block3.exec-5859.GoNoGo3";;;;;;;;;;;;;;;;;;;;;;;;;;;;;;;;;;;;;;;;;;;;;;;"1260";"2014-07-17 18:05:55.779";"ST_correctStop";"7";"0";"FINISHED";"NONE";"success";"0";"1";"2014-07-17 18:05:54.516";"1";;;;;;;;;;;;;;;;;;;;;;;;;;;;;;;;;
"On my own";"1993";;"Windows 7";"Rachel's Experiment (D.T.)";"1.0";"2";"1";"1";"2";"1";"1";"2014-07-17 17:58:46.451";"2014-07-17 18:14:04.044";"1";"1";"1";"120";"119";"module.training_block3.exec-5859.GoNoGo3";;;;;;;;;;;;;;;;;;;;;;;;;;;;;;;;;;;;;;;;;;;;;;;"1260";"2014-07-17 18:05:58.338";"ST_correctStop";"2";"0";"FINISHED";"NONE";"success";"0";"1";"2014-07-17 18:05:57.074";"1";;;;;;;;;;;;;;;;;;;;;;;;;;;;;;;;;
"On my own";"1993";;"Windows 7";"Rachel's Experiment (D.T.)";"1.0";"2";"1";"1";"2";"1";"1";"2014-07-17 17:58:46.451";"2014-07-17 18:14:04.044";"1";"1";"1";"121";"120";"module.training_block3.exec-5859.GoNoGo3";;;;;;;;;;;;;;;;;;;;;;;;;;;;;;;;;;;;;;;;;;;;;;;"1262";"2014-07-17 18:06:00.880";"ST_correctStop";"8";"1";"FINISHED";"NONE";"success";"0";"1";"2014-07-17 18:05:59.617";"1";;;;;;;;;;;;;;;;;;;;;;;;;;;;;;;;;
"On my own";"1993";;"Windows 7";"Rachel's Experiment (D.T.)";"1.0";"2";"1";"1";"2";"1";"1";"2014-07-17 17:58:46.451";"2014-07-17 18:14:04.044";"1";"1";"1";"122";"121";"module.training_block3.exec-5859.GoNoGo3";;;;;;;;;;;;;;;;;;;;;;;;;;;;;;;;;;;;;;;;;;;;;;;"1261";"2014-07-17 18:06:03.408";"ST_correctStop";"21";"1";"FINISHED";"NONE";"success";"0";"1";"2014-07-17 18:06:02.144";"3";;;;;;;;;;;;;;;;;;;;;;;;;;;;;;;;;
"On my own";"1993";;"Windows 7";"Rachel's Experiment (D.T.)";"1.0";"2";"1";"1";"2";"1";"1";"2014-07-17 17:58:46.451";"2014-07-17 18:14:04.044";"1";"1";"1";"123";"122";"module.training_block3.exec-5859.GoNoGo3";;;;;;;;;;;;;;;;;;;;;;;;;;;;;;;;;;;;;;;;;;;;;;;"1260";"2014-07-17 18:06:05.950";"ST_correctStop";"20";"1";"FINISHED";"NONE";"success";"0";"1";"2014-07-17 18:06:04.687";"3";;;;;;;;;;;;;;;;;;;;;;;;;;;;;;;;;
"On my own";"1993";;"Windows 7";"Rachel's Experiment (D.T.)";"1.0";"2";"1";"1";"2";"1";"1";"2014-07-17 17:58:46.451";"2014-07-17 18:14:04.044";"1";"1";"1";"124";"123";"module.training_block4.exec-1841.GoNoGo4";;;;;;;;;;;;;;;;;;;;;;;;;;;;;;;;;;;;;;;;;;;;;;;;;;;;;;;;;;;"1260";"2014-07-17 18:06:16.371";"NST_correctLoc";"25";"0";"FINISHED";"LEFT";"success";"448";"0";"2014-07-17 18:06:15.108";"3";;;;;;;;;;;;;;;;;;;;;
"On my own";"1993";;"Windows 7";"Rachel's Experiment (D.T.)";"1.0";"2";"1";"1";"2";"1";"1";"2014-07-17 17:58:46.451";"2014-07-17 18:14:04.044";"1";"1";"1";"125";"124";"module.training_block4.exec-1841.GoNoGo4";;;;;;;;;;;;;;;;;;;;;;;;;;;;;;;;;;;;;;;;;;;;;;;;;;;;;;;;;;;"1260";"2014-07-17 18:06:18.930";"NST_correctLoc";"16";"0";"FINISHED";"LEFT";"success";"453";"0";"2014-07-17 18:06:17.666";"2";;;;;;;;;;;;;;;;;;;;;
"On my own";"1993";;"Windows 7";"Rachel's Experiment (D.T.)";"1.0";"2";"1";"1";"2";"1";"1";"2014-07-17 17:58:46.451";"2014-07-17 18:14:04.044";"1";"1";"1";"126";"125";"module.training_block4.exec-1841.GoNoGo4";;;;;;;;;;;;;;;;;;;;;;;;;;;;;;;;;;;;;;;;;;;;;;;;;;;;;;;;;;;"1260";"2014-07-17 18:06:21.488";"NST_correctLoc";"9";"0";"FINISHED";"LEFT";"success";"462";"0";"2014-07-17 18:06:20.224";"2";;;;;;;;;;;;;;;;;;;;;
"On my own";"1993";;"Windows 7";"Rachel's Experiment (D.T.)";"1.0";"2";"1";"1";"2";"1";"1";"2014-07-17 17:58:46.451";"2014-07-17 18:14:04.044";"1";"1";"1";"127";"126";"module.training_block4.exec-1841.GoNoGo4";;;;;;;;;;;;;;;;;;;;;;;;;;;;;;;;;;;;;;;;;;;;;;;;;;;;;;;;;;;"1260";"2014-07-17 18:06:24.015";"ST_correctStop";"2";"0";"FINISHED";"NONE";"success";"0";"1";"2014-07-17 18:06:22.752";"1";;;;;;;;;;;;;;;;;;;;;
"On my own";"1993";;"Windows 7";"Rachel's Experiment (D.T.)";"1.0";"2";"1";"1";"2";"1";"1";"2014-07-17 17:58:46.451";"2014-07-17 18:14:04.044";"1";"1";"1";"128";"127";"module.training_block4.exec-1841.GoNoGo4";;;;;;;;;;;;;;;;;;;;;;;;;;;;;;;;;;;;;;;;;;;;;;;;;;;;;;;;;;;"1260";"2014-07-17 18:06:26.574";"ST_correctStop";"30";"0";"FINISHED";"NONE";"success";"0";"1";"2014-07-17 18:06:25.310";"3";;;;;;;;;;;;;;;;;;;;;
"On my own";"1993";;"Windows 7";"Rachel's Experiment (D.T.)";"1.0";"2";"1";"1";"2";"1";"1";"2014-07-17 17:58:46.451";"2014-07-17 18:14:04.044";"1";"1";"1";"129";"128";"module.training_block4.exec-1841.GoNoGo4";;;;;;;;;;;;;;;;;;;;;;;;;;;;;;;;;;;;;;;;;;;;;;;;;;;;;;;;;;;"1262";"2014-07-17 18:06:29.116";"ST_correctStop";"33";"0";"FINISHED";"NONE";"success";"0";"1";"2014-07-17 18:06:27.853";"3";;;;;;;;;;;;;;;;;;;;;
"On my own";"1993";;"Windows 7";"Rachel's Experiment (D.T.)";"1.0";"2";"1";"1";"2";"1";"1";"2014-07-17 17:58:46.451";"2014-07-17 18:14:04.044";"1";"1";"1";"130";"129";"module.training_block4.exec-1841.GoNoGo4";;;;;;;;;;;;;;;;;;;;;;;;;;;;;;;;;;;;;;;;;;;;;;;;;;;;;;;;;;;"1260";"2014-07-17 18:06:31.675";"ST_correctStop";"4";"1";"FINISHED";"NONE";"success";"0";"1";"2014-07-17 18:06:30.411";"1";;;;;;;;;;;;;;;;;;;;;
"On my own";"1993";;"Windows 7";"Rachel's Experiment (D.T.)";"1.0";"2";"1";"1";"2";"1";"1";"2014-07-17 17:58:46.451";"2014-07-17 18:14:04.044";"1";"1";"1";"131";"130";"module.training_block4.exec-1841.GoNoGo4";;;;;;;;;;;;;;;;;;;;;;;;;;;;;;;;;;;;;;;;;;;;;;;;;;;;;;;;;;;"1260";"2014-07-17 18:06:34.233";"ST_correctStop";"21";"1";"FINISHED";"NONE";"success";"0";"1";"2014-07-17 18:06:32.970";"3";;;;;;;;;;;;;;;;;;;;;
"On my own";"1993";;"Windows 7";"Rachel's Experiment (D.T.)";"1.0";"2";"1";"1";"2";"1";"1";"2014-07-17 17:58:46.451";"2014-07-17 18:14:04.044";"1";"1";"1";"132";"131";"module.training_block4.exec-1841.GoNoGo4";;;;;;;;;;;;;;;;;;;;;;;;;;;;;;;;;;;;;;;;;;;;;;;;;;;;;;;;;;;"1260";"2014-07-17 18:06:36.792";"NST_correctLoc";"10";"0";"FINISHED";"LEFT";"success";"408";"0";"2014-07-17 18:06:35.528";"2";;;;;;;;;;;;;;;;;;;;;
"On my own";"1993";;"Windows 7";"Rachel's Experiment (D.T.)";"1.0";"2";"1";"1";"2";"1";"1";"2014-07-17 17:58:46.451";"2014-07-17 18:14:04.044";"1";"1";"1";"133";"132";"module.training_block4.exec-1841.GoNoGo4";;;;;;;;;;;;;;;;;;;;;;;;;;;;;;;;;;;;;;;;;;;;;;;;;;;;;;;;;;;"1260";"2014-07-17 18:06:39.334";"ST_correctStop";"8";"1";"FINISHED";"NONE";"success";"0";"1";"2014-07-17 18:06:38.071";"1";;;;;;;;;;;;;;;;;;;;;
"On my own";"1993";;"Windows 7";"Rachel's Experiment (D.T.)";"1.0";"2";"1";"1";"2";"1";"1";"2014-07-17 17:58:46.451";"2014-07-17 18:14:04.044";"1";"1";"1";"134";"133";"module.training_block4.exec-1841.GoNoGo4";;;;;;;;;;;;;;;;;;;;;;;;;;;;;;;;;;;;;;;;;;;;;;;;;;;;;;;;;;;"1262";"2014-07-17 18:06:41.877";"ST_correctStop";"19";"1";"FINISHED";"NONE";"success";"0";"1";"2014-07-17 18:06:40.614";"3";;;;;;;;;;;;;;;;;;;;;
"On my own";"1993";;"Windows 7";"Rachel's Experiment (D.T.)";"1.0";"2";"1";"1";"2";"1";"1";"2014-07-17 17:58:46.451";"2014-07-17 18:14:04.044";"1";"1";"1";"135";"134";"module.training_block4.exec-1841.GoNoGo4";;;;;;;;;;;;;;;;;;;;;;;;;;;;;;;;;;;;;;;;;;;;;;;;;;;;;;;;;;;"1260";"2014-07-17 18:06:44.420";"ST_correctStop";"0";"0";"FINISHED";"NONE";"success";"0";"1";"2014-07-17 18:06:43.156";"1";;;;;;;;;;;;;;;;;;;;;
"On my own";"1993";;"Windows 7";"Rachel's Experiment (D.T.)";"1.0";"2";"1";"1";"2";"1";"1";"2014-07-17 17:58:46.451";"2014-07-17 18:14:04.044";"1";"1";"1";"136";"135";"module.training_block4.exec-1841.GoNoGo4";;;;;;;;;;;;;;;;;;;;;;;;;;;;;;;;;;;;;;;;;;;;;;;;;;;;;;;;;;;"1260";"2014-07-17 18:06:46.978";"NST_correctLoc";"18";"1";"FINISHED";"RIGHT";"success";"426";"0";"2014-07-17 18:06:45.715";"3";;;;;;;;;;;;;;;;;;;;;
"On my own";"1993";;"Windows 7";"Rachel's Experiment (D.T.)";"1.0";"2";"1";"1";"2";"1";"1";"2014-07-17 17:58:46.451";"2014-07-17 18:14:04.044";"1";"1";"1";"137";"136";"module.training_block4.exec-1841.GoNoGo4";;;;;;;;;;;;;;;;;;;;;;;;;;;;;;;;;;;;;;;;;;;;;;;;;;;;;;;;;;;"1260";"2014-07-17 18:06:49.521";"NST_correctLoc";"27";"1";"FINISHED";"RIGHT";"success";"440";"0";"2014-07-17 18:06:48.258";"3";;;;;;;;;;;;;;;;;;;;;
"On my own";"1993";;"Windows 7";"Rachel's Experiment (D.T.)";"1.0";"2";"1";"1";"2";"1";"1";"2014-07-17 17:58:46.451";"2014-07-17 18:14:04.044";"1";"1";"1";"138";"137";"module.training_block4.exec-1841.GoNoGo4";;;;;;;;;;;;;;;;;;;;;;;;;;;;;;;;;;;;;;;;;;;;;;;;;;;;;;;;;;;"1260";"2014-07-17 18:06:52.080";"ST_correctStop";"3";"1";"FINISHED";"NONE";"success";"0";"1";"2014-07-17 18:06:50.816";"1";;;;;;;;;;;;;;;;;;;;;
"On my own";"1993";;"Windows 7";"Rachel's Experiment (D.T.)";"1.0";"2";"1";"1";"2";"1";"1";"2014-07-17 17:58:46.451";"2014-07-17 18:14:04.044";"1";"1";"1";"139";"138";"module.training_block4.exec-1841.GoNoGo4";;;;;;;;;;;;;;;;;;;;;;;;;;;;;;;;;;;;;;;;;;;;;;;;;;;;;;;;;;;"1260";"2014-07-17 18:06:54.638";"NST_correctLoc";"13";"1";"FINISHED";"RIGHT";"success";"431";"0";"2014-07-17 18:06:53.374";"2";;;;;;;;;;;;;;;;;;;;;
"On my own";"1993";;"Windows 7";"Rachel's Experiment (D.T.)";"1.0";"2";"1";"1";"2";"1";"1";"2014-07-17 17:58:46.451";"2014-07-17 18:14:04.044";"1";"1";"1";"140";"139";"module.training_block4.exec-1841.GoNoGo4";;;;;;;;;;;;;;;;;;;;;;;;;;;;;;;;;;;;;;;;;;;;;;;;;;;;;;;;;;;"1262";"2014-07-17 18:06:57.181";"NST_correctLoc";"24";"0";"FINISHED";"LEFT";"success";"448";"0";"2014-07-17 18:06:55.917";"3";;;;;;;;;;;;;;;;;;;;;
"On my own";"1993";;"Windows 7";"Rachel's Experiment (D.T.)";"1.0";"2";"1";"1";"2";"1";"1";"2014-07-17 17:58:46.451";"2014-07-17 18:14:04.044";"1";"1";"1";"141";"140";"module.training_block4.exec-1841.GoNoGo4";;;;;;;;;;;;;;;;;;;;;;;;;;;;;;;;;;;;;;;;;;;;;;;;;;;;;;;;;;;"1260";"2014-07-17 18:06:59.739";"ST_correctStop";"29";"0";"FINISHED";"NONE";"success";"0";"1";"2014-07-17 18:06:58.476";"3";;;;;;;;;;;;;;;;;;;;;
"On my own";"1993";;"Windows 7";"Rachel's Experiment (D.T.)";"1.0";"2";"1";"1";"2";"1";"1";"2014-07-17 17:58:46.451";"2014-07-17 18:14:04.044";"1";"1";"1";"142";"141";"module.training_block4.exec-1841.GoNoGo4";;;;;;;;;;;;;;;;;;;;;;;;;;;;;;;;;;;;;;;;;;;;;;;;;;;;;;;;;;;"1260";"2014-07-17 18:07:02.282";"ST_correctStop";"20";"0";"FINISHED";"NONE";"success";"0";"1";"2014-07-17 18:07:01.018";"3";;;;;;;;;;;;;;;;;;;;;
"On my own";"1993";;"Windows 7";"Rachel's Experiment (D.T.)";"1.0";"2";"1";"1";"2";"1";"1";"2014-07-17 17:58:46.451";"2014-07-17 18:14:04.044";"1";"1";"1";"143";"142";"module.training_block4.exec-1841.GoNoGo4";;;;;;;;;;;;;;;;;;;;;;;;;;;;;;;;;;;;;;;;;;;;;;;;;;;;;;;;;;;"1260";"2014-07-17 18:07:04.809";"NST_correctLoc";"34";"0";"FINISHED";"LEFT";"success";"453";"0";"2014-07-17 18:07:03.546";"3";;;;;;;;;;;;;;;;;;;;;
"On my own";"1993";;"Windows 7";"Rachel's Experiment (D.T.)";"1.0";"2";"1";"1";"2";"1";"1";"2014-07-17 17:58:46.451";"2014-07-17 18:14:04.044";"1";"1";"1";"144";"143";"module.training_block4.exec-1841.GoNoGo4";;;;;;;;;;;;;;;;;;;;;;;;;;;;;;;;;;;;;;;;;;;;;;;;;;;;;;;;;;;"1260";"2014-07-17 18:07:07.368";"ST_correctStop";"1";"0";"FINISHED";"NONE";"success";"0";"1";"2014-07-17 18:07:06.104";"1";;;;;;;;;;;;;;;;;;;;;
"On my own";"1993";;"Windows 7";"Rachel's Experiment (D.T.)";"1.0";"2";"1";"1";"2";"1";"1";"2014-07-17 17:58:46.451";"2014-07-17 18:14:04.044";"1";"1";"1";"145";"144";"module.training_block4.exec-1841.GoNoGo4";;;;;;;;;;;;;;;;;;;;;;;;;;;;;;;;;;;;;;;;;;;;;;;;;;;;;;;;;;;"1262";"2014-07-17 18:07:09.895";"NST_correctLoc";"12";"1";"FINISHED";"RIGHT";"success";"380";"0";"2014-07-17 18:07:08.631";"2";;;;;;;;;;;;;;;;;;;;;
"On my own";"1993";;"Windows 7";"Rachel's Experiment (D.T.)";"1.0";"2";"1";"1";"2";"1";"1";"2014-07-17 17:58:46.451";"2014-07-17 18:14:04.044";"1";"1";"1";"146";"145";"module.training_block4.exec-1841.GoNoGo4";;;;;;;;;;;;;;;;;;;;;;;;;;;;;;;;;;;;;;;;;;;;;;;;;;;;;;;;;;;"1260";"2014-07-17 18:07:12.438";"NST_correctLoc";"26";"0";"FINISHED";"LEFT";"success";"475";"0";"2014-07-17 18:07:11.174";"3";;;;;;;;;;;;;;;;;;;;;
"On my own";"1993";;"Windows 7";"Rachel's Experiment (D.T.)";"1.0";"2";"1";"1";"2";"1";"1";"2014-07-17 17:58:46.451";"2014-07-17 18:14:04.044";"1";"1";"1";"147";"146";"module.training_block4.exec-1841.GoNoGo4";;;;;;;;;;;;;;;;;;;;;;;;;;;;;;;;;;;;;;;;;;;;;;;;;;;;;;;;;;;"1262";"2014-07-17 18:07:14.981";"ST_correctStop";"5";"1";"FINISHED";"NONE";"success";"0";"1";"2014-07-17 18:07:13.717";"1";;;;;;;;;;;;;;;;;;;;;
"On my own";"1993";;"Windows 7";"Rachel's Experiment (D.T.)";"1.0";"2";"1";"1";"2";"1";"1";"2014-07-17 17:58:46.451";"2014-07-17 18:14:04.044";"1";"1";"1";"148";"147";"module.training_block4.exec-1841.GoNoGo4";;;;;;;;;;;;;;;;;;;;;;;;;;;;;;;;;;;;;;;;;;;;;;;;;;;;;;;;;;;"1260";"2014-07-17 18:07:17.539";"ST_correctStop";"28";"0";"FINISHED";"NONE";"success";"0";"1";"2014-07-17 18:07:16.275";"3";;;;;;;;;;;;;;;;;;;;;
"On my own";"1993";;"Windows 7";"Rachel's Experiment (D.T.)";"1.0";"2";"1";"1";"2";"1";"1";"2014-07-17 17:58:46.451";"2014-07-17 18:14:04.044";"1";"1";"1";"149";"148";"module.training_block4.exec-1841.GoNoGo4";;;;;;;;;;;;;;;;;;;;;;;;;;;;;;;;;;;;;;;;;;;;;;;;;;;;;;;;;;;"1260";"2014-07-17 18:07:20.097";"NST_correctLoc";"15";"0";"FINISHED";"LEFT";"success";"475";"0";"2014-07-17 18:07:18.834";"2";;;;;;;;;;;;;;;;;;;;;
"On my own";"1993";;"Windows 7";"Rachel's Experiment (D.T.)";"1.0";"2";"1";"1";"2";"1";"1";"2014-07-17 17:58:46.451";"2014-07-17 18:14:04.044";"1";"1";"1";"150";"149";"module.training_block4.exec-1841.GoNoGo4";;;;;;;;;;;;;;;;;;;;;;;;;;;;;;;;;;;;;;;;;;;;;;;;;;;;;;;;;;;"1262";"2014-07-17 18:07:22.656";"ST_correctStop";"31";"1";"FINISHED";"NONE";"success";"0";"1";"2014-07-17 18:07:21.392";"3";;;;;;;;;;;;;;;;;;;;;
"On my own";"1993";;"Windows 7";"Rachel's Experiment (D.T.)";"1.0";"2";"1";"1";"2";"1";"1";"2014-07-17 17:58:46.451";"2014-07-17 18:14:04.044";"1";"1";"1";"151";"150";"module.training_block4.exec-1841.GoNoGo4";;;;;;;;;;;;;;;;;;;;;;;;;;;;;;;;;;;;;;;;;;;;;;;;;;;;;;;;;;;"1262";"2014-07-17 18:07:25.199";"NST_correctLoc";"14";"0";"FINISHED";"LEFT";"success";"511";"0";"2014-07-17 18:07:23.935";"2";;;;;;;;;;;;;;;;;;;;;
"On my own";"1993";;"Windows 7";"Rachel's Experiment (D.T.)";"1.0";"2";"1";"1";"2";"1";"1";"2014-07-17 17:58:46.451";"2014-07-17 18:14:04.044";"1";"1";"1";"152";"151";"module.training_block4.exec-1841.GoNoGo4";;;;;;;;;;;;;;;;;;;;;;;;;;;;;;;;;;;;;;;;;;;;;;;;;;;;;;;;;;;"1260";"2014-07-17 18:07:27.741";"ST_correctStop";"6";"1";"FINISHED";"NONE";"success";"0";"1";"2014-07-17 18:07:26.478";"1";;;;;;;;;;;;;;;;;;;;;
"On my own";"1993";;"Windows 7";"Rachel's Experiment (D.T.)";"1.0";"2";"1";"1";"2";"1";"1";"2014-07-17 17:58:46.451";"2014-07-17 18:14:04.044";"1";"1";"1";"153";"152";"module.training_block4.exec-1841.GoNoGo4";;;;;;;;;;;;;;;;;;;;;;;;;;;;;;;;;;;;;;;;;;;;;;;;;;;;;;;;;;;"1260";"2014-07-17 18:07:30.300";"NST_correctLoc";"32";"0";"FINISHED";"LEFT";"success";"487";"0";"2014-07-17 18:07:29.036";"3";;;;;;;;;;;;;;;;;;;;;
"On my own";"1993";;"Windows 7";"Rachel's Experiment (D.T.)";"1.0";"2";"1";"1";"2";"1";"1";"2014-07-17 17:58:46.451";"2014-07-17 18:14:04.044";"1";"1";"1";"154";"153";"module.training_block4.exec-1841.GoNoGo4";;;;;;;;;;;;;;;;;;;;;;;;;;;;;;;;;;;;;;;;;;;;;;;;;;;;;;;;;;;"1261";"2014-07-17 18:07:32.843";"NST_correctLoc";"17";"0";"FINISHED";"LEFT";"success";"423";"0";"2014-07-17 18:07:31.579";"2";;;;;;;;;;;;;;;;;;;;;
"On my own";"1993";;"Windows 7";"Rachel's Experiment (D.T.)";"1.0";"2";"1";"1";"2";"1";"1";"2014-07-17 17:58:46.451";"2014-07-17 18:14:04.044";"1";"1";"1";"155";"154";"module.training_block4.exec-1841.GoNoGo4";;;;;;;;;;;;;;;;;;;;;;;;;;;;;;;;;;;;;;;;;;;;;;;;;;;;;;;;;;;"1260";"2014-07-17 18:07:35.385";"NST_correctLoc";"23";"0";"FINISHED";"LEFT";"success";"470";"0";"2014-07-17 18:07:34.122";"3";;;;;;;;;;;;;;;;;;;;;
"On my own";"1993";;"Windows 7";"Rachel's Experiment (D.T.)";"1.0";"2";"1";"1";"2";"1";"1";"2014-07-17 17:58:46.451";"2014-07-17 18:14:04.044";"1";"1";"1";"156";"155";"module.training_block4.exec-1841.GoNoGo4";;;;;;;;;;;;;;;;;;;;;;;;;;;;;;;;;;;;;;;;;;;;;;;;;;;;;;;;;;;"1262";"2014-07-17 18:07:37.913";"NST_correctLoc";"11";"1";"FINISHED";"RIGHT";"success";"430";"0";"2014-07-17 18:07:36.649";"2";;;;;;;;;;;;;;;;;;;;;
"On my own";"1993";;"Windows 7";"Rachel's Experiment (D.T.)";"1.0";"2";"1";"1";"2";"1";"1";"2014-07-17 17:58:46.451";"2014-07-17 18:14:04.044";"1";"1";"1";"157";"156";"module.training_block4.exec-1841.GoNoGo4";;;;;;;;;;;;;;;;;;;;;;;;;;;;;;;;;;;;;;;;;;;;;;;;;;;;;;;;;;;"1261";"2014-07-17 18:07:40.455";"ST_correctStop";"22";"1";"FINISHED";"NONE";"success";"0";"1";"2014-07-17 18:07:39.192";"3";;;;;;;;;;;;;;;;;;;;;
"On my own";"1993";;"Windows 7";"Rachel's Experiment (D.T.)";"1.0";"2";"1";"1";"2";"1";"1";"2014-07-17 17:58:46.451";"2014-07-17 18:14:04.044";"1";"1";"1";"158";"157";"module.training_block4.exec-1841.GoNoGo4";;;;;;;;;;;;;;;;;;;;;;;;;;;;;;;;;;;;;;;;;;;;;;;;;;;;;;;;;;;"1260";"2014-07-17 18:07:42.998";"NST_correctLoc";"35";"1";"FINISHED";"RIGHT";"success";"399";"0";"2014-07-17 18:07:41.735";"3";;;;;;;;;;;;;;;;;;;;;
"On my own";"1993";;"Windows 7";"Rachel's Experiment (D.T.)";"1.0";"2";"1";"1";"2";"1";"1";"2014-07-17 17:58:46.451";"2014-07-17 18:14:04.044";"1";"1";"1";"159";"158";"module.training_block4.exec-1841.GoNoGo4";;;;;;;;;;;;;;;;;;;;;;;;;;;;;;;;;;;;;;;;;;;;;;;;;;;;;;;;;;;"1261";"2014-07-17 18:07:45.541";"ST_correctStop";"7";"0";"FINISHED";"NONE";"success";"0";"1";"2014-07-17 18:07:44.277";"1";;;;;;;;;;;;;;;;;;;;;
"On my own";"1993";;"Windows 7";"Rachel's Experiment (D.T.)";"1.0";"2";"1";"1";"2";"1";"1";"2014-07-17 17:58:46.451";"2014-07-17 18:14:04.044";"1";"1";"1";"160";"159";"module.devaluation_practice.exec-3932.devalPractice";;;;;;;;;;;;"16454";"2014-07-17 18:08:29.486";"0";"4";"4";"5";"6064";"3149";"4175";"2014-07-17 18:08:13.028";;;;;;;;;;;;;;;;;;;;;;;;;;;;;;;;;;;;;;;;;;;;;;;;;;;;;;;;;;;;;;;;;;;;;;
"On my own";"1993";;"Windows 7";"Rachel's Experiment (D.T.)";"1.0";"2";"1";"1";"2";"1";"1";"2014-07-17 17:58:46.451";"2014-07-17 18:14:04.044";"1";"1";"1";"161";"160";"module.devaluation_practice.exec-3932.devalPractice";;;;;;;;;;;;"10322";"2014-07-17 18:08:39.813";"1";"3";"1";"4";"2091";"2005";"3185";"2014-07-17 18:08:29.502";;;;;;;;;;;;;;;;;;;;;;;;;;;;;;;;;;;;;;;;;;;;;;;;;;;;;;;;;;;;;;;;;;;;;;
"On my own";"1993";;"Windows 7";"Rachel's Experiment (D.T.)";"1.0";"2";"1";"1";"2";"1";"1";"2014-07-17 17:58:46.451";"2014-07-17 18:14:04.044";"1";"1";"1";"162";"161";"module.devaluation_practice.exec-3932.devalPractice";;;;;;;;;;;;"12752";"2014-07-17 18:08:52.621";"2";"6";"2";"5";"3364";"2358";"3961";"2014-07-17 18:08:39.860";;;;;;;;;;;;;;;;;;;;;;;;;;;;;;;;;;;;;;;;;;;;;;;;;;;;;;;;;;;;;;;;;;;;;;
"On my own";"1993";;"Windows 7";"Rachel's Experiment (D.T.)";"1.0";"2";"1";"1";"2";"1";"1";"2014-07-17 17:58:46.451";"2014-07-17 18:14:04.044";"1";"1";"1";"163";"162";"module.devaluation_practice.exec-3932.devalPractice";;;;;;;;;;;;"12683";"2014-07-17 18:09:05.335";"3";"5";"3";"6";"3884";"1411";"4353";"2014-07-17 18:08:52.652";;;;;;;;;;;;;;;;;;;;;;;;;;;;;;;;;;;;;;;;;;;;;;;;;;;;;;;;;;;;;;;;;;;;;;
"On my own";"1993";;"Windows 7";"Rachel's Experiment (D.T.)";"1.0";"2";"1";"1";"2";"1";"1";"2014-07-17 17:58:46.451";"2014-07-17 18:14:04.044";"1";"1";"1";"164";"163";"module.devaluation_block1.exec-4012.deval1";"14004";"2014-07-17 18:09:26.801";"7";"4";"6";"5";"4619";"2920";"3440";"2014-07-17 18:09:12.792";"1";;;;;;;;;;;;;;;;;;;;;;;;;;;;;;;;;;;;;;;;;;;;;;;;;;;;;;;;;;;;;;;;;;;;;;;;;;;;;;;;
"On my own";"1993";;"Windows 7";"Rachel's Experiment (D.T.)";"1.0";"2";"1";"1";"2";"1";"1";"2014-07-17 17:58:46.451";"2014-07-17 18:14:04.044";"1";"1";"1";"165";"164";"module.devaluation_block1.exec-4012.deval1";"11253";"2014-07-17 18:09:38.095";"4";"7";"7";"9";"1886";"2949";"3384";"2014-07-17 18:09:26.832";"1";;;;;;;;;;;;;;;;;;;;;;;;;;;;;;;;;;;;;;;;;;;;;;;;;;;;;;;;;;;;;;;;;;;;;;;;;;;;;;;;
"On my own";"1993";;"Windows 7";"Rachel's Experiment (D.T.)";"1.0";"2";"1";"1";"2";"1";"1";"2014-07-17 17:58:46.451";"2014-07-17 18:14:04.044";"1";"1";"1";"166";"165";"module.devaluation_block1.exec-4012.deval1";"8838";"2014-07-17 18:09:46.972";"5";"6";"7";"7";"2430";"1770";"1613";"2014-07-17 18:09:38.142";"1";;;;;;;;;;;;;;;;;;;;;;;;;;;;;;;;;;;;;;;;;;;;;;;;;;;;;;;;;;;;;;;;;;;;;;;;;;;;;;;;
"On my own";"1993";;"Windows 7";"Rachel's Experiment (D.T.)";"1.0";"2";"1";"1";"2";"1";"1";"2014-07-17 17:58:46.451";"2014-07-17 18:14:04.044";"1";"1";"1";"167";"166";"module.devaluation_block1.exec-4012.deval1";"10132";"2014-07-17 18:09:57.143";"9";"4";"1";"4";"2128";"3173";"1791";"2014-07-17 18:09:47.018";"2";;;;;;;;;;;;;;;;;;;;;;;;;;;;;;;;;;;;;;;;;;;;;;;;;;;;;;;;;;;;;;;;;;;;;;;;;;;;;;;;
"On my own";"1993";;"Windows 7";"Rachel's Experiment (D.T.)";"1.0";"2";"1";"1";"2";"1";"1";"2014-07-17 17:58:46.451";"2014-07-17 18:14:04.044";"1";"1";"1";"168";"167";"module.devaluation_block1.exec-4012.deval1";"10746";"2014-07-17 18:10:07.907";"3";"7";"7";"7";"3637";"2860";"1224";"2014-07-17 18:09:57.158";"1";;;;;;;;;;;;;;;;;;;;;;;;;;;;;;;;;;;;;;;;;;;;;;;;;;;;;;;;;;;;;;;;;;;;;;;;;;;;;;;;
"On my own";"1993";;"Windows 7";"Rachel's Experiment (D.T.)";"1.0";"2";"1";"1";"2";"1";"1";"2014-07-17 17:58:46.451";"2014-07-17 18:14:04.044";"1";"1";"1";"169";"168";"module.devaluation_block1.exec-4012.deval1";"15334";"2014-07-17 18:10:23.273";"19";"5";"2";"4";"2841";"5065";"4390";"2014-07-17 18:10:07.938";"3";;;;;;;;;;;;;;;;;;;;;;;;;;;;;;;;;;;;;;;;;;;;;;;;;;;;;;;;;;;;;;;;;;;;;;;;;;;;;;;;
"On my own";"1993";;"Windows 7";"Rachel's Experiment (D.T.)";"1.0";"2";"1";"1";"2";"1";"1";"2014-07-17 17:58:46.451";"2014-07-17 18:14:04.044";"1";"1";"1";"170";"169";"module.devaluation_block1.exec-4012.deval1";"9659";"2014-07-17 18:10:32.960";"16";"3";"1";"4";"1746";"1472";"3401";"2014-07-17 18:10:23.304";"2";;;;;;;;;;;;;;;;;;;;;;;;;;;;;;;;;;;;;;;;;;;;;;;;;;;;;;;;;;;;;;;;;;;;;;;;;;;;;;;;
"On my own";"1993";;"Windows 7";"Rachel's Experiment (D.T.)";"1.0";"2";"1";"1";"2";"1";"1";"2014-07-17 17:58:46.451";"2014-07-17 18:14:04.044";"1";"1";"1";"171";"170";"module.devaluation_block1.exec-4012.deval1";"10849";"2014-07-17 18:10:43.849";"23";"5";"5";"7";"4100";"1521";"2187";"2014-07-17 18:10:33.007";"3";;;;;;;;;;;;;;;;;;;;;;;;;;;;;;;;;;;;;;;;;;;;;;;;;;;;;;;;;;;;;;;;;;;;;;;;;;;;;;;;
"On my own";"1993";;"Windows 7";"Rachel's Experiment (D.T.)";"1.0";"2";"1";"1";"2";"1";"1";"2014-07-17 17:58:46.451";"2014-07-17 18:14:04.044";"1";"1";"1";"172";"171";"module.devaluation_block1.exec-4012.deval1";"10648";"2014-07-17 18:10:54.535";"12";"5";"9";"9";"1704";"3049";"2864";"2014-07-17 18:10:43.896";"2";;;;;;;;;;;;;;;;;;;;;;;;;;;;;;;;;;;;;;;;;;;;;;;;;;;;;;;;;;;;;;;;;;;;;;;;;;;;;;;;
"On my own";"1993";;"Windows 7";"Rachel's Experiment (D.T.)";"1.0";"2";"1";"1";"2";"1";"1";"2014-07-17 17:58:46.451";"2014-07-17 18:14:04.044";"1";"1";"1";"173";"172";"module.devaluation_block1.exec-4012.deval1";"10584";"2014-07-17 18:11:05.159";"15";"3";"1";"4";"1975";"3236";"2343";"2014-07-17 18:10:54.582";"2";;;;;;;;;;;;;;;;;;;;;;;;;;;;;;;;;;;;;;;;;;;;;;;;;;;;;;;;;;;;;;;;;;;;;;;;;;;;;;;;
"On my own";"1993";;"Windows 7";"Rachel's Experiment (D.T.)";"1.0";"2";"1";"1";"2";"1";"1";"2014-07-17 17:58:46.451";"2014-07-17 18:14:04.044";"1";"1";"1";"174";"173";"module.devaluation_block1.exec-4012.deval1";"10482";"2014-07-17 18:11:15.673";"14";"6";"3";"7";"2115";"1486";"3856";"2014-07-17 18:11:05.190";"2";;;;;;;;;;;;;;;;;;;;;;;;;;;;;;;;;;;;;;;;;;;;;;;;;;;;;;;;;;;;;;;;;;;;;;;;;;;;;;;;
"On my own";"1993";;"Windows 7";"Rachel's Experiment (D.T.)";"1.0";"2";"1";"1";"2";"1";"1";"2014-07-17 17:58:46.451";"2014-07-17 18:14:04.044";"1";"1";"1";"175";"174";"module.devaluation_block1.exec-4012.deval1";"8798";"2014-07-17 18:11:24.487";"26";"9";"8";"9";"1998";"1864";"1910";"2014-07-17 18:11:15.689";"3";;;;;;;;;;;;;;;;;;;;;;;;;;;;;;;;;;;;;;;;;;;;;;;;;;;;;;;;;;;;;;;;;;;;;;;;;;;;;;;;
"On my own";"1993";;"Windows 7";"Rachel's Experiment (D.T.)";"1.0";"2";"1";"1";"2";"1";"1";"2014-07-17 17:58:46.451";"2014-07-17 18:14:04.044";"1";"1";"1";"176";"175";"module.devaluation_block1.exec-4012.deval1";"9970";"2014-07-17 18:11:34.503";"17";"2";"1";"1";"4008";"1237";"1696";"2014-07-17 18:11:24.534";"2";;;;;;;;;;;;;;;;;;;;;;;;;;;;;;;;;;;;;;;;;;;;;;;;;;;;;;;;;;;;;;;;;;;;;;;;;;;;;;;;
"On my own";"1993";;"Windows 7";"Rachel's Experiment (D.T.)";"1.0";"2";"1";"1";"2";"1";"1";"2014-07-17 17:58:46.451";"2014-07-17 18:14:04.044";"1";"1";"1";"177";"176";"module.devaluation_block1.exec-4012.deval1";"9690";"2014-07-17 18:11:44.237";"22";"5";"3";"5";"3701";"1216";"1754";"2014-07-17 18:11:34.534";"3";;;;;;;;;;;;;;;;;;;;;;;;;;;;;;;;;;;;;;;;;;;;;;;;;;;;;;;;;;;;;;;;;;;;;;;;;;;;;;;;
"On my own";"1993";;"Windows 7";"Rachel's Experiment (D.T.)";"1.0";"2";"1";"1";"2";"1";"1";"2014-07-17 17:58:46.451";"2014-07-17 18:14:04.044";"1";"1";"1";"178";"177";"module.devaluation_block1.exec-4012.deval1";"9806";"2014-07-17 18:11:54.081";"0";"6";"4";"7";"2758";"2105";"1911";"2014-07-17 18:11:44.268";"1";;;;;;;;;;;;;;;;;;;;;;;;;;;;;;;;;;;;;;;;;;;;;;;;;;;;;;;;;;;;;;;;;;;;;;;;;;;;;;;;
"On my own";"1993";;"Windows 7";"Rachel's Experiment (D.T.)";"1.0";"2";"1";"1";"2";"1";"1";"2014-07-17 17:58:46.451";"2014-07-17 18:14:04.044";"1";"1";"1";"179";"178";"module.devaluation_block1.exec-4012.deval1";"10610";"2014-07-17 18:12:04.720";"21";"7";"5";"7";"4019";"1631";"1935";"2014-07-17 18:11:54.112";"3";;;;;;;;;;;;;;;;;;;;;;;;;;;;;;;;;;;;;;;;;;;;;;;;;;;;;;;;;;;;;;;;;;;;;;;;;;;;;;;;
"On my own";"1993";;"Windows 7";"Rachel's Experiment (D.T.)";"1.0";"2";"1";"1";"2";"1";"1";"2014-07-17 17:58:46.451";"2014-07-17 18:14:04.044";"1";"1";"1";"180";"179";"module.devaluation_block1.exec-4012.deval1";"10988";"2014-07-17 18:12:15.749";"13";"5";"3";"5";"4333";"1663";"1956";"2014-07-17 18:12:04.767";"2";;;;;;;;;;;;;;;;;;;;;;;;;;;;;;;;;;;;;;;;;;;;;;;;;;;;;;;;;;;;;;;;;;;;;;;;;;;;;;;;
"On my own";"1993";;"Windows 7";"Rachel's Experiment (D.T.)";"1.0";"2";"1";"1";"2";"1";"1";"2014-07-17 17:58:46.451";"2014-07-17 18:14:04.044";"1";"1";"1";"181";"180";"module.devaluation_block1.exec-4012.deval1";"11378";"2014-07-17 18:12:27.168";"8";"7";"5";"6";"3470";"1878";"2996";"2014-07-17 18:12:15.796";"1";;;;;;;;;;;;;;;;;;;;;;;;;;;;;;;;;;;;;;;;;;;;;;;;;;;;;;;;;;;;;;;;;;;;;;;;;;;;;;;;
"On my own";"1993";;"Windows 7";"Rachel's Experiment (D.T.)";"1.0";"2";"1";"1";"2";"1";"1";"2014-07-17 17:58:46.451";"2014-07-17 18:14:04.044";"1";"1";"1";"182";"181";"module.devaluation_block1.exec-4012.deval1";"9469";"2014-07-17 18:12:36.653";"18";"3";"5";"8";"2177";"1259";"3009";"2014-07-17 18:12:27.184";"3";;;;;;;;;;;;;;;;;;;;;;;;;;;;;;;;;;;;;;;;;;;;;;;;;;;;;;;;;;;;;;;;;;;;;;;;;;;;;;;;
"On my own";"1993";;"Windows 7";"Rachel's Experiment (D.T.)";"1.0";"2";"1";"1";"2";"1";"1";"2014-07-17 17:58:46.451";"2014-07-17 18:14:04.044";"1";"1";"1";"183";"182";"module.devaluation_block1.exec-4012.deval1";"12616";"2014-07-17 18:12:49.289";"24";"6";"7";"8";"828";"3410";"5336";"2014-07-17 18:12:36.684";"3";;;;;;;;;;;;;;;;;;;;;;;;;;;;;;;;;;;;;;;;;;;;;;;;;;;;;;;;;;;;;;;;;;;;;;;;;;;;;;;;
"On my own";"1993";;"Windows 7";"Rachel's Experiment (D.T.)";"1.0";"2";"1";"1";"2";"1";"1";"2014-07-17 17:58:46.451";"2014-07-17 18:14:04.044";"1";"1";"1";"184";"183";"module.devaluation_block1.exec-4012.deval1";"8627";"2014-07-17 18:12:57.963";"11";"3";"2";"3";"1871";"2031";"1688";"2014-07-17 18:12:49.336";"2";;;;;;;;;;;;;;;;;;;;;;;;;;;;;;;;;;;;;;;;;;;;;;;;;;;;;;;;;;;;;;;;;;;;;;;;;;;;;;;;
"On my own";"1993";;"Windows 7";"Rachel's Experiment (D.T.)";"1.0";"2";"1";"1";"2";"1";"1";"2014-07-17 17:58:46.451";"2014-07-17 18:14:04.044";"1";"1";"1";"185";"184";"module.devaluation_block1.exec-4012.deval1";"11591";"2014-07-17 18:13:09.569";"1";"5";"2";"6";"5413";"1369";"1749";"2014-07-17 18:12:57.978";"1";;;;;;;;;;;;;;;;;;;;;;;;;;;;;;;;;;;;;;;;;;;;;;;;;;;;;;;;;;;;;;;;;;;;;;;;;;;;;;;;
"On my own";"1993";;"Windows 7";"Rachel's Experiment (D.T.)";"1.0";"2";"1";"1";"2";"1";"1";"2014-07-17 17:58:46.451";"2014-07-17 18:14:04.044";"1";"1";"1";"186";"185";"module.devaluation_block1.exec-4012.deval1";"11566";"2014-07-17 18:13:21.160";"20";"4";"1";"3";"2248";"1144";"5139";"2014-07-17 18:13:09.600";"3";;;;;;;;;;;;;;;;;;;;;;;;;;;;;;;;;;;;;;;;;;;;;;;;;;;;;;;;;;;;;;;;;;;;;;;;;;;;;;;;
"On my own";"1993";;"Windows 7";"Rachel's Experiment (D.T.)";"1.0";"2";"1";"1";"2";"1";"1";"2014-07-17 17:58:46.451";"2014-07-17 18:14:04.044";"1";"1";"1";"187";"186";"module.devaluation_block1.exec-4012.deval1";"7943";"2014-07-17 18:13:29.132";"2";"5";"1";"5";"2304";"1037";"1555";"2014-07-17 18:13:21.191";"1";;;;;;;;;;;;;;;;;;;;;;;;;;;;;;;;;;;;;;;;;;;;;;;;;;;;;;;;;;;;;;;;;;;;;;;;;;;;;;;;
"On my own";"1993";;"Windows 7";"Rachel's Experiment (D.T.)";"1.0";"2";"1";"1";"2";"1";"1";"2014-07-17 17:58:46.451";"2014-07-17 18:14:04.044";"1";"1";"1";"188";"187";"module.devaluation_block1.exec-4012.deval1";"10116";"2014-07-17 18:13:39.287";"25";"6";"2";"5";"1247";"2113";"3721";"2014-07-17 18:13:29.178";"3";;;;;;;;;;;;;;;;;;;;;;;;;;;;;;;;;;;;;;;;;;;;;;;;;;;;;;;;;;;;;;;;;;;;;;;;;;;;;;;;
"On my own";"1993";;"Windows 7";"Rachel's Experiment (D.T.)";"1.0";"2";"1";"1";"2";"1";"1";"2014-07-17 17:58:46.451";"2014-07-17 18:14:04.044";"1";"1";"1";"189";"188";"module.devaluation_block1.exec-4012.deval1";"12004";"2014-07-17 18:13:51.330";"10";"4";"1";"5";"2229";"1864";"4877";"2014-07-17 18:13:39.334";"2";;;;;;;;;;;;;;;;;;;;;;;;;;;;;;;;;;;;;;;;;;;;;;;;;;;;;;;;;;;;;;;;;;;;;;;;;;;;;;;;
"On my own";"1993";;"Windows 7";"Rachel's Experiment (D.T.)";"1.0";"2";"1";"1";"2";"1";"1";"2014-07-17 17:58:46.451";"2014-07-17 18:14:04.044";"1";"1";"1";"190";"189";"module.devaluation_block1.exec-4012.deval1";"10559";"2014-07-17 18:14:01.938";"6";"5";"5";"4";"3816";"2105";"1603";"2014-07-17 18:13:51.377";"1";;;;;;;;;;;;;;;;;;;;;;;;;;;;;;;;;;;;;;;;;;;;;;;;;;;;;;;;;;;;;;;;;;;;;;;;;;;;;;;;
