"user.name";"user.yearOfBirth";"user.sex";"user.osName";"module.name";"module.version";"module.online.subject.code";"module.online.study.id";"module.online.module.nr";"module.online.group.nr";"session.id";"session.index";"session.startTime";"session.endTime";"session.completed";"session.node-1294.conditionType";"session.node-1885.DevalQorder";"trial.id";"trial.index";"trial.name";"trial.deval1.durationTime";"trial.deval1.endTime";"trial.deval1.icon";"trial.deval1.Resp_Attractive";"trial.deval1.Resp_Eat";"trial.deval1.Resp_Taste";"trial.deval1.RT_Attractive";"trial.deval1.RT_Eat";"trial.deval1.RT_Taste";"trial.deval1.startTime";"trial.deval1.stimulus type";"trial.devalPractice.durationTime";"trial.devalPractice.endTime";"trial.devalPractice.icon";"trial.devalPractice.Resp_Attractive";"trial.devalPractice.Resp_Eat";"trial.devalPractice.Resp_Taste";"trial.devalPractice.RT_Attractive";"trial.devalPractice.RT_Eat";"trial.devalPractice.RT_Taste";"trial.devalPractice.startTime";"trial.devalPractice.stimulus type";"trial.GoNoGo1.durationTime";"trial.GoNoGo1.endTime";"trial.GoNoGo1.Error Type";"trial.GoNoGo1.icon";"trial.GoNoGo1.location";"trial.GoNoGo1.outcome";"trial.GoNoGo1.response";"trial.GoNoGo1.result";"trial.GoNoGo1.RT";"trial.GoNoGo1.signal";"trial.GoNoGo1.startTime";"trial.GoNoGo1.stimulus type";"trial.GoNoGo2.durationTime";"trial.GoNoGo2.endTime";"trial.GoNoGo2.Error Type";"trial.GoNoGo2.icon";"trial.GoNoGo2.location";"trial.GoNoGo2.outcome";"trial.GoNoGo2.response";"trial.GoNoGo2.result";"trial.GoNoGo2.RT";"trial.GoNoGo2.signal";"trial.GoNoGo2.startTime";"trial.GoNoGo2.stimulus type";"trial.GoNoGo3.durationTime";"trial.GoNoGo3.endTime";"trial.GoNoGo3.Error Type";"trial.GoNoGo3.icon";"trial.GoNoGo3.location";"trial.GoNoGo3.outcome";"trial.GoNoGo3.response";"trial.GoNoGo3.result";"trial.GoNoGo3.RT";"trial.GoNoGo3.signal";"trial.GoNoGo3.startTime";"trial.GoNoGo3.stimulus type";"trial.GoNoGo4.durationTime";"trial.GoNoGo4.endTime";"trial.GoNoGo4.Error Type";"trial.GoNoGo4.icon";"trial.GoNoGo4.location";"trial.GoNoGo4.outcome";"trial.GoNoGo4.response";"trial.GoNoGo4.result";"trial.GoNoGo4.RT";"trial.GoNoGo4.signal";"trial.GoNoGo4.startTime";"trial.GoNoGo4.stimulus type";"trial.GoNoGo_Practice.durationTime";"trial.GoNoGo_Practice.endTime";"trial.GoNoGo_Practice.icon";"trial.GoNoGo_Practice.location";"trial.GoNoGo_Practice.outcome";"trial.GoNoGo_Practice.response";"trial.GoNoGo_Practice.result";"trial.GoNoGo_Practice.RT";"trial.GoNoGo_Practice.signal";"trial.GoNoGo_Practice.startTime";"trial.GoNoGo_Practice.stimulus type";"trial.GoNoGo_Tutorial.durationTime";"trial.GoNoGo_Tutorial.endTime";"trial.GoNoGo_Tutorial.icon";"trial.GoNoGo_Tutorial.location";"trial.GoNoGo_Tutorial.outcome";"trial.GoNoGo_Tutorial.response";"trial.GoNoGo_Tutorial.result";"trial.GoNoGo_Tutorial.RT";"trial.GoNoGo_Tutorial.signal";"trial.GoNoGo_Tutorial.startTime"
"nekem_nyolc";"1996";;"Windows 7";"Rachel's Experiment (D.T.)";"1.0";"2";"1";"1";"2";"1";"1";"2014-10-07 10:00:20.030";"2014-10-07 10:17:24.451";"1";"0";"0";"1";"0";"module.GoNoGotutorial.exec-5288.GoNoGo_Tutorial";;;;;;;;;;;;;;;;;;;;;;;;;;;;;;;;;;;;;;;;;;;;;;;;;;;;;;;;;;;;;;;;;;;;;;;;;;;;;;;;;;"3995";"2014-10-07 10:02:44.938";"leftResponse";"0";"FINISHED";"NONE";"failure";"0";"0";"2014-10-07 10:02:40.929"
"nekem_nyolc";"1996";;"Windows 7";"Rachel's Experiment (D.T.)";"1.0";"2";"1";"1";"2";"1";"1";"2014-10-07 10:00:20.030";"2014-10-07 10:17:24.451";"1";"0";"0";"2";"1";"module.GoNoGotutorial.exec-5288.GoNoGo_Tutorial";;;;;;;;;;;;;;;;;;;;;;;;;;;;;;;;;;;;;;;;;;;;;;;;;;;;;;;;;;;;;;;;;;;;;;;;;;;;;;;;;;"4008";"2014-10-07 10:02:50.258";"rightResponse";"1";"FINISHED";"NONE";"failure";"0";"0";"2014-10-07 10:02:46.249"
"nekem_nyolc";"1996";;"Windows 7";"Rachel's Experiment (D.T.)";"1.0";"2";"1";"1";"2";"1";"1";"2014-10-07 10:00:20.030";"2014-10-07 10:17:24.451";"1";"0";"0";"3";"2";"module.GoNoGotutorial.exec-5288.GoNoGo_Tutorial";;;;;;;;;;;;;;;;;;;;;;;;;;;;;;;;;;;;;;;;;;;;;;;;;;;;;;;;;;;;;;;;;;;;;;;;;;;;;;;;;;"4003";"2014-10-07 10:02:55.562";"quickResponse";"0";"FINISHED";"NONE";"failure";"0";"0";"2014-10-07 10:02:51.553"
"nekem_nyolc";"1996";;"Windows 7";"Rachel's Experiment (D.T.)";"1.0";"2";"1";"1";"2";"1";"1";"2014-10-07 10:00:20.030";"2014-10-07 10:17:24.451";"1";"0";"0";"4";"3";"module.GoNoGopractice.exec-8279.GoNoGo_Practice";;;;;;;;;;;;;;;;;;;;;;;;;;;;;;;;;;;;;;;;;;;;;;;;;;;;;;;;;;;;;;;;;;;;;;;"1959";"2014-10-07 10:03:07.823";"18";"0";"FINISHED";"LEFT";"success";"450";"0";"2014-10-07 10:03:05.858";"3";;;;;;;;;;
"nekem_nyolc";"1996";;"Windows 7";"Rachel's Experiment (D.T.)";"1.0";"2";"1";"1";"2";"1";"1";"2014-10-07 10:00:20.030";"2014-10-07 10:17:24.451";"1";"0";"0";"5";"4";"module.GoNoGopractice.exec-8279.GoNoGo_Practice";;;;;;;;;;;;;;;;;;;;;;;;;;;;;;;;;;;;;;;;;;;;;;;;;;;;;;;;;;;;;;;;;;;;;;;"1959";"2014-10-07 10:03:11.068";"21";"1";"FINISHED";"RIGHT";"success";"407";"0";"2014-10-07 10:03:09.103";"3";;;;;;;;;;
"nekem_nyolc";"1996";;"Windows 7";"Rachel's Experiment (D.T.)";"1.0";"2";"1";"1";"2";"1";"1";"2014-10-07 10:00:20.030";"2014-10-07 10:17:24.451";"1";"0";"0";"6";"5";"module.GoNoGopractice.exec-8279.GoNoGo_Practice";;;;;;;;;;;;;;;;;;;;;;;;;;;;;;;;;;;;;;;;;;;;;;;;;;;;;;;;;;;;;;;;;;;;;;;"1959";"2014-10-07 10:03:14.313";"14";"1";"FINISHED";"RIGHT";"success";"418";"0";"2014-10-07 10:03:12.347";"2";;;;;;;;;;
"nekem_nyolc";"1996";;"Windows 7";"Rachel's Experiment (D.T.)";"1.0";"2";"1";"1";"2";"1";"1";"2014-10-07 10:00:20.030";"2014-10-07 10:17:24.451";"1";"0";"0";"7";"6";"module.GoNoGopractice.exec-8279.GoNoGo_Practice";;;;;;;;;;;;;;;;;;;;;;;;;;;;;;;;;;;;;;;;;;;;;;;;;;;;;;;;;;;;;;;;;;;;;;;"1959";"2014-10-07 10:03:17.558";"26";"0";"FINISHED";"LEFT";"success";"645";"0";"2014-10-07 10:03:15.592";"3";;;;;;;;;;
"nekem_nyolc";"1996";;"Windows 7";"Rachel's Experiment (D.T.)";"1.0";"2";"1";"1";"2";"1";"1";"2014-10-07 10:00:20.030";"2014-10-07 10:17:24.451";"1";"0";"0";"8";"7";"module.GoNoGopractice.exec-8279.GoNoGo_Practice";;;;;;;;;;;;;;;;;;;;;;;;;;;;;;;;;;;;;;;;;;;;;;;;;;;;;;;;;;;;;;;;;;;;;;;"1959";"2014-10-07 10:03:20.803";"2";"0";"FINISHED";"LEFT";"success";"520";"0";"2014-10-07 10:03:18.837";"1";;;;;;;;;;
"nekem_nyolc";"1996";;"Windows 7";"Rachel's Experiment (D.T.)";"1.0";"2";"1";"1";"2";"1";"1";"2014-10-07 10:00:20.030";"2014-10-07 10:17:24.451";"1";"0";"0";"9";"8";"module.GoNoGopractice.exec-8279.GoNoGo_Practice";;;;;;;;;;;;;;;;;;;;;;;;;;;;;;;;;;;;;;;;;;;;;;;;;;;;;;;;;;;;;;;;;;;;;;;"1960";"2014-10-07 10:03:24.047";"30";"0";"FINISHED";"LEFT";"success";"436";"0";"2014-10-07 10:03:22.082";"3";;;;;;;;;;
"nekem_nyolc";"1996";;"Windows 7";"Rachel's Experiment (D.T.)";"1.0";"2";"1";"1";"2";"1";"1";"2014-10-07 10:00:20.030";"2014-10-07 10:17:24.451";"1";"0";"0";"10";"9";"module.GoNoGopractice.exec-8279.GoNoGo_Practice";;;;;;;;;;;;;;;;;;;;;;;;;;;;;;;;;;;;;;;;;;;;;;;;;;;;;;;;;;;;;;;;;;;;;;;"1959";"2014-10-07 10:03:27.292";"6";"1";"FINISHED";"RIGHT";"success";"359";"0";"2014-10-07 10:03:25.327";"1";;;;;;;;;;
"nekem_nyolc";"1996";;"Windows 7";"Rachel's Experiment (D.T.)";"1.0";"2";"1";"1";"2";"1";"1";"2014-10-07 10:00:20.030";"2014-10-07 10:17:24.451";"1";"0";"0";"11";"10";"module.GoNoGopractice.exec-8279.GoNoGo_Practice";;;;;;;;;;;;;;;;;;;;;;;;;;;;;;;;;;;;;;;;;;;;;;;;;;;;;;;;;;;;;;;;;;;;;;;"1960";"2014-10-07 10:03:30.537";"34";"0";"FINISHED";"LEFT";"success";"411";"0";"2014-10-07 10:03:28.571";"3";;;;;;;;;;
"nekem_nyolc";"1996";;"Windows 7";"Rachel's Experiment (D.T.)";"1.0";"2";"1";"1";"2";"1";"1";"2014-10-07 10:00:20.030";"2014-10-07 10:17:24.451";"1";"0";"0";"12";"11";"module.GoNoGopractice.exec-8279.GoNoGo_Practice";;;;;;;;;;;;;;;;;;;;;;;;;;;;;;;;;;;;;;;;;;;;;;;;;;;;;;;;;;;;;;;;;;;;;;;"1959";"2014-10-07 10:03:33.797";"23";"1";"FINISHED";"RIGHT";"success";"325";"0";"2014-10-07 10:03:31.832";"3";;;;;;;;;;
"nekem_nyolc";"1996";;"Windows 7";"Rachel's Experiment (D.T.)";"1.0";"2";"1";"1";"2";"1";"1";"2014-10-07 10:00:20.030";"2014-10-07 10:17:24.451";"1";"0";"0";"13";"12";"module.GoNoGopractice.exec-8279.GoNoGo_Practice";;;;;;;;;;;;;;;;;;;;;;;;;;;;;;;;;;;;;;;;;;;;;;;;;;;;;;;;;;;;;;;;;;;;;;;"1959";"2014-10-07 10:03:37.042";"13";"0";"FINISHED";"LEFT";"success";"369";"0";"2014-10-07 10:03:35.077";"2";;;;;;;;;;
"nekem_nyolc";"1996";;"Windows 7";"Rachel's Experiment (D.T.)";"1.0";"2";"1";"1";"2";"1";"1";"2014-10-07 10:00:20.030";"2014-10-07 10:17:24.451";"1";"0";"0";"14";"13";"module.GoNoGopractice.exec-8279.GoNoGo_Practice";;;;;;;;;;;;;;;;;;;;;;;;;;;;;;;;;;;;;;;;;;;;;;;;;;;;;;;;;;;;;;;;;;;;;;;"1959";"2014-10-07 10:03:40.287";"3";"1";"FINISHED";"RIGHT";"success";"308";"0";"2014-10-07 10:03:38.321";"1";;;;;;;;;;
"nekem_nyolc";"1996";;"Windows 7";"Rachel's Experiment (D.T.)";"1.0";"2";"1";"1";"2";"1";"1";"2014-10-07 10:00:20.030";"2014-10-07 10:17:24.451";"1";"0";"0";"15";"14";"module.GoNoGopractice.exec-8279.GoNoGo_Practice";;;;;;;;;;;;;;;;;;;;;;;;;;;;;;;;;;;;;;;;;;;;;;;;;;;;;;;;;;;;;;;;;;;;;;;"1959";"2014-10-07 10:03:43.532";"27";"1";"FINISHED";"RIGHT";"success";"423";"0";"2014-10-07 10:03:41.566";"3";;;;;;;;;;
"nekem_nyolc";"1996";;"Windows 7";"Rachel's Experiment (D.T.)";"1.0";"2";"1";"1";"2";"1";"1";"2014-10-07 10:00:20.030";"2014-10-07 10:17:24.451";"1";"0";"0";"16";"15";"module.training_block1.exec-8611.GoNoGo1";;;;;;;;;;;;;;;;;;;;;;;"1261";"2014-10-07 10:03:55.013";"NST_correctLoc";"26";"1";"FINISHED";"RIGHT";"success";"402";"0";"2014-10-07 10:03:53.750";"3";;;;;;;;;;;;;;;;;;;;;;;;;;;;;;;;;;;;;;;;;;;;;;;;;;;;;;;;;
"nekem_nyolc";"1996";;"Windows 7";"Rachel's Experiment (D.T.)";"1.0";"2";"1";"1";"2";"1";"1";"2014-10-07 10:00:20.030";"2014-10-07 10:17:24.451";"1";"0";"0";"17";"16";"module.training_block1.exec-8611.GoNoGo1";;;;;;;;;;;;;;;;;;;;;;;"1261";"2014-10-07 10:03:57.556";"NST_correctLoc";"30";"1";"FINISHED";"RIGHT";"success";"380";"0";"2014-10-07 10:03:56.293";"3";;;;;;;;;;;;;;;;;;;;;;;;;;;;;;;;;;;;;;;;;;;;;;;;;;;;;;;;;
"nekem_nyolc";"1996";;"Windows 7";"Rachel's Experiment (D.T.)";"1.0";"2";"1";"1";"2";"1";"1";"2014-10-07 10:00:20.030";"2014-10-07 10:17:24.451";"1";"0";"0";"18";"17";"module.training_block1.exec-8611.GoNoGo1";;;;;;;;;;;;;;;;;;;;;;;"1257";"2014-10-07 10:04:00.099";"NST_correctLoc";"1";"0";"FINISHED";"LEFT";"success";"306";"0";"2014-10-07 10:03:58.835";"1";;;;;;;;;;;;;;;;;;;;;;;;;;;;;;;;;;;;;;;;;;;;;;;;;;;;;;;;;
"nekem_nyolc";"1996";;"Windows 7";"Rachel's Experiment (D.T.)";"1.0";"2";"1";"1";"2";"1";"1";"2014-10-07 10:00:20.030";"2014-10-07 10:17:24.451";"1";"0";"0";"19";"18";"module.training_block1.exec-8611.GoNoGo1";;;;;;;;;;;;;;;;;;;;;;;"1257";"2014-10-07 10:04:02.642";"NST_correctLoc";"15";"1";"FINISHED";"RIGHT";"success";"267";"0";"2014-10-07 10:04:01.378";"2";;;;;;;;;;;;;;;;;;;;;;;;;;;;;;;;;;;;;;;;;;;;;;;;;;;;;;;;;
"nekem_nyolc";"1996";;"Windows 7";"Rachel's Experiment (D.T.)";"1.0";"2";"1";"1";"2";"1";"1";"2014-10-07 10:00:20.030";"2014-10-07 10:17:24.451";"1";"0";"0";"20";"19";"module.training_block1.exec-8611.GoNoGo1";;;;;;;;;;;;;;;;;;;;;;;"1261";"2014-10-07 10:04:05.185";"NST_correctLoc";"21";"0";"FINISHED";"LEFT";"success";"256";"0";"2014-10-07 10:04:03.921";"3";;;;;;;;;;;;;;;;;;;;;;;;;;;;;;;;;;;;;;;;;;;;;;;;;;;;;;;;;
"nekem_nyolc";"1996";;"Windows 7";"Rachel's Experiment (D.T.)";"1.0";"2";"1";"1";"2";"1";"1";"2014-10-07 10:00:20.030";"2014-10-07 10:17:24.451";"1";"0";"0";"21";"20";"module.training_block1.exec-8611.GoNoGo1";;;;;;;;;;;;;;;;;;;;;;;"1258";"2014-10-07 10:04:07.727";"NST_correctLoc";"24";"0";"FINISHED";"LEFT";"success";"349";"0";"2014-10-07 10:04:06.464";"3";;;;;;;;;;;;;;;;;;;;;;;;;;;;;;;;;;;;;;;;;;;;;;;;;;;;;;;;;
"nekem_nyolc";"1996";;"Windows 7";"Rachel's Experiment (D.T.)";"1.0";"2";"1";"1";"2";"1";"1";"2014-10-07 10:00:20.030";"2014-10-07 10:17:24.451";"1";"0";"0";"22";"21";"module.training_block1.exec-8611.GoNoGo1";;;;;;;;;;;;;;;;;;;;;;;"1261";"2014-10-07 10:04:10.270";"NST_correctLoc";"2";"0";"FINISHED";"LEFT";"success";"394";"0";"2014-10-07 10:04:09.007";"1";;;;;;;;;;;;;;;;;;;;;;;;;;;;;;;;;;;;;;;;;;;;;;;;;;;;;;;;;
"nekem_nyolc";"1996";;"Windows 7";"Rachel's Experiment (D.T.)";"1.0";"2";"1";"1";"2";"1";"1";"2014-10-07 10:00:20.030";"2014-10-07 10:17:24.451";"1";"0";"0";"23";"22";"module.training_block1.exec-8611.GoNoGo1";;;;;;;;;;;;;;;;;;;;;;;"1257";"2014-10-07 10:04:12.813";"NST_correctLoc";"33";"1";"FINISHED";"RIGHT";"success";"303";"0";"2014-10-07 10:04:11.549";"3";;;;;;;;;;;;;;;;;;;;;;;;;;;;;;;;;;;;;;;;;;;;;;;;;;;;;;;;;
"nekem_nyolc";"1996";;"Windows 7";"Rachel's Experiment (D.T.)";"1.0";"2";"1";"1";"2";"1";"1";"2014-10-07 10:00:20.030";"2014-10-07 10:17:24.451";"1";"0";"0";"24";"23";"module.training_block1.exec-8611.GoNoGo1";;;;;;;;;;;;;;;;;;;;;;;"1261";"2014-10-07 10:04:15.356";"NST_correctLoc";"6";"1";"FINISHED";"RIGHT";"success";"397";"0";"2014-10-07 10:04:14.092";"1";;;;;;;;;;;;;;;;;;;;;;;;;;;;;;;;;;;;;;;;;;;;;;;;;;;;;;;;;
"nekem_nyolc";"1996";;"Windows 7";"Rachel's Experiment (D.T.)";"1.0";"2";"1";"1";"2";"1";"1";"2014-10-07 10:00:20.030";"2014-10-07 10:17:24.451";"1";"0";"0";"25";"24";"module.training_block1.exec-8611.GoNoGo1";;;;;;;;;;;;;;;;;;;;;;;"1261";"2014-10-07 10:04:17.899";"NST_correctLoc";"27";"0";"FINISHED";"LEFT";"success";"302";"0";"2014-10-07 10:04:16.635";"3";;;;;;;;;;;;;;;;;;;;;;;;;;;;;;;;;;;;;;;;;;;;;;;;;;;;;;;;;
"nekem_nyolc";"1996";;"Windows 7";"Rachel's Experiment (D.T.)";"1.0";"2";"1";"1";"2";"1";"1";"2014-10-07 10:00:20.030";"2014-10-07 10:17:24.451";"1";"0";"0";"26";"25";"module.training_block1.exec-8611.GoNoGo1";;;;;;;;;;;;;;;;;;;;;;;"1257";"2014-10-07 10:04:20.441";"NST_correctLoc";"0";"1";"FINISHED";"RIGHT";"success";"323";"0";"2014-10-07 10:04:19.178";"1";;;;;;;;;;;;;;;;;;;;;;;;;;;;;;;;;;;;;;;;;;;;;;;;;;;;;;;;;
"nekem_nyolc";"1996";;"Windows 7";"Rachel's Experiment (D.T.)";"1.0";"2";"1";"1";"2";"1";"1";"2014-10-07 10:00:20.030";"2014-10-07 10:17:24.451";"1";"0";"0";"27";"26";"module.training_block1.exec-8611.GoNoGo1";;;;;;;;;;;;;;;;;;;;;;;"1256";"2014-10-07 10:04:23.078";"NST_correctLoc";"9";"0";"FINISHED";"LEFT";"success";"365";"0";"2014-10-07 10:04:21.814";"2";;;;;;;;;;;;;;;;;;;;;;;;;;;;;;;;;;;;;;;;;;;;;;;;;;;;;;;;;
"nekem_nyolc";"1996";;"Windows 7";"Rachel's Experiment (D.T.)";"1.0";"2";"1";"1";"2";"1";"1";"2014-10-07 10:00:20.030";"2014-10-07 10:17:24.451";"1";"0";"0";"28";"27";"module.training_block1.exec-8611.GoNoGo1";;;;;;;;;;;;;;;;;;;;;;;"1258";"2014-10-07 10:04:25.621";"NST_correctLoc";"5";"0";"FINISHED";"LEFT";"success";"392";"0";"2014-10-07 10:04:24.357";"1";;;;;;;;;;;;;;;;;;;;;;;;;;;;;;;;;;;;;;;;;;;;;;;;;;;;;;;;;
"nekem_nyolc";"1996";;"Windows 7";"Rachel's Experiment (D.T.)";"1.0";"2";"1";"1";"2";"1";"1";"2014-10-07 10:00:20.030";"2014-10-07 10:17:24.451";"1";"0";"0";"29";"28";"module.training_block1.exec-8611.GoNoGo1";;;;;;;;;;;;;;;;;;;;;;;"1258";"2014-10-07 10:04:28.163";"NST_correctLoc";"25";"0";"FINISHED";"LEFT";"success";"370";"0";"2014-10-07 10:04:26.900";"3";;;;;;;;;;;;;;;;;;;;;;;;;;;;;;;;;;;;;;;;;;;;;;;;;;;;;;;;;
"nekem_nyolc";"1996";;"Windows 7";"Rachel's Experiment (D.T.)";"1.0";"2";"1";"1";"2";"1";"1";"2014-10-07 10:00:20.030";"2014-10-07 10:17:24.451";"1";"0";"0";"30";"29";"module.training_block1.exec-8611.GoNoGo1";;;;;;;;;;;;;;;;;;;;;;;"1258";"2014-10-07 10:04:30.706";"NST_correctLoc";"3";"0";"FINISHED";"LEFT";"success";"323";"0";"2014-10-07 10:04:29.443";"1";;;;;;;;;;;;;;;;;;;;;;;;;;;;;;;;;;;;;;;;;;;;;;;;;;;;;;;;;
"nekem_nyolc";"1996";;"Windows 7";"Rachel's Experiment (D.T.)";"1.0";"2";"1";"1";"2";"1";"1";"2014-10-07 10:00:20.030";"2014-10-07 10:17:24.451";"1";"0";"0";"31";"30";"module.training_block1.exec-8611.GoNoGo1";;;;;;;;;;;;;;;;;;;;;;;"1258";"2014-10-07 10:04:33.249";"NST_correctLoc";"29";"1";"FINISHED";"RIGHT";"success";"412";"0";"2014-10-07 10:04:31.985";"3";;;;;;;;;;;;;;;;;;;;;;;;;;;;;;;;;;;;;;;;;;;;;;;;;;;;;;;;;
"nekem_nyolc";"1996";;"Windows 7";"Rachel's Experiment (D.T.)";"1.0";"2";"1";"1";"2";"1";"1";"2014-10-07 10:00:20.030";"2014-10-07 10:17:24.451";"1";"0";"0";"32";"31";"module.training_block1.exec-8611.GoNoGo1";;;;;;;;;;;;;;;;;;;;;;;"1257";"2014-10-07 10:04:35.792";"NST_correctLoc";"16";"1";"FINISHED";"RIGHT";"success";"573";"0";"2014-10-07 10:04:34.528";"2";;;;;;;;;;;;;;;;;;;;;;;;;;;;;;;;;;;;;;;;;;;;;;;;;;;;;;;;;
"nekem_nyolc";"1996";;"Windows 7";"Rachel's Experiment (D.T.)";"1.0";"2";"1";"1";"2";"1";"1";"2014-10-07 10:00:20.030";"2014-10-07 10:17:24.451";"1";"0";"0";"33";"32";"module.training_block1.exec-8611.GoNoGo1";;;;;;;;;;;;;;;;;;;;;;;"1257";"2014-10-07 10:04:38.335";"NST_correctLoc";"7";"1";"FINISHED";"RIGHT";"success";"374";"0";"2014-10-07 10:04:37.071";"1";;;;;;;;;;;;;;;;;;;;;;;;;;;;;;;;;;;;;;;;;;;;;;;;;;;;;;;;;
"nekem_nyolc";"1996";;"Windows 7";"Rachel's Experiment (D.T.)";"1.0";"2";"1";"1";"2";"1";"1";"2014-10-07 10:00:20.030";"2014-10-07 10:17:24.451";"1";"0";"0";"34";"33";"module.training_block1.exec-8611.GoNoGo1";;;;;;;;;;;;;;;;;;;;;;;"1257";"2014-10-07 10:04:40.877";"NST_correctLoc";"17";"0";"FINISHED";"LEFT";"success";"439";"0";"2014-10-07 10:04:39.614";"2";;;;;;;;;;;;;;;;;;;;;;;;;;;;;;;;;;;;;;;;;;;;;;;;;;;;;;;;;
"nekem_nyolc";"1996";;"Windows 7";"Rachel's Experiment (D.T.)";"1.0";"2";"1";"1";"2";"1";"1";"2014-10-07 10:00:20.030";"2014-10-07 10:17:24.451";"1";"0";"0";"35";"34";"module.training_block1.exec-8611.GoNoGo1";;;;;;;;;;;;;;;;;;;;;;;"1257";"2014-10-07 10:04:43.420";"NST_correctLoc";"12";"1";"FINISHED";"RIGHT";"success";"368";"0";"2014-10-07 10:04:42.157";"2";;;;;;;;;;;;;;;;;;;;;;;;;;;;;;;;;;;;;;;;;;;;;;;;;;;;;;;;;
"nekem_nyolc";"1996";;"Windows 7";"Rachel's Experiment (D.T.)";"1.0";"2";"1";"1";"2";"1";"1";"2014-10-07 10:00:20.030";"2014-10-07 10:17:24.451";"1";"0";"0";"36";"35";"module.training_block1.exec-8611.GoNoGo1";;;;;;;;;;;;;;;;;;;;;;;"1257";"2014-10-07 10:04:45.963";"NST_correctLoc";"13";"1";"FINISHED";"RIGHT";"success";"425";"0";"2014-10-07 10:04:44.699";"2";;;;;;;;;;;;;;;;;;;;;;;;;;;;;;;;;;;;;;;;;;;;;;;;;;;;;;;;;
"nekem_nyolc";"1996";;"Windows 7";"Rachel's Experiment (D.T.)";"1.0";"2";"1";"1";"2";"1";"1";"2014-10-07 10:00:20.030";"2014-10-07 10:17:24.451";"1";"0";"0";"37";"36";"module.training_block1.exec-8611.GoNoGo1";;;;;;;;;;;;;;;;;;;;;;;"1258";"2014-10-07 10:04:48.506";"NST_correctLoc";"10";"1";"FINISHED";"RIGHT";"success";"363";"0";"2014-10-07 10:04:47.242";"2";;;;;;;;;;;;;;;;;;;;;;;;;;;;;;;;;;;;;;;;;;;;;;;;;;;;;;;;;
"nekem_nyolc";"1996";;"Windows 7";"Rachel's Experiment (D.T.)";"1.0";"2";"1";"1";"2";"1";"1";"2014-10-07 10:00:20.030";"2014-10-07 10:17:24.451";"1";"0";"0";"38";"37";"module.training_block1.exec-8611.GoNoGo1";;;;;;;;;;;;;;;;;;;;;;;"1257";"2014-10-07 10:04:51.049";"NST_correctLoc";"23";"0";"FINISHED";"LEFT";"success";"364";"0";"2014-10-07 10:04:49.785";"3";;;;;;;;;;;;;;;;;;;;;;;;;;;;;;;;;;;;;;;;;;;;;;;;;;;;;;;;;
"nekem_nyolc";"1996";;"Windows 7";"Rachel's Experiment (D.T.)";"1.0";"2";"1";"1";"2";"1";"1";"2014-10-07 10:00:20.030";"2014-10-07 10:17:24.451";"1";"0";"0";"39";"38";"module.training_block1.exec-8611.GoNoGo1";;;;;;;;;;;;;;;;;;;;;;;"1258";"2014-10-07 10:04:53.591";"NST_correctLoc";"35";"0";"FINISHED";"LEFT";"success";"389";"0";"2014-10-07 10:04:52.328";"3";;;;;;;;;;;;;;;;;;;;;;;;;;;;;;;;;;;;;;;;;;;;;;;;;;;;;;;;;
"nekem_nyolc";"1996";;"Windows 7";"Rachel's Experiment (D.T.)";"1.0";"2";"1";"1";"2";"1";"1";"2014-10-07 10:00:20.030";"2014-10-07 10:17:24.451";"1";"0";"0";"40";"39";"module.training_block1.exec-8611.GoNoGo1";;;;;;;;;;;;;;;;;;;;;;;"1257";"2014-10-07 10:04:56.134";"NST_correctLoc";"14";"1";"FINISHED";"RIGHT";"success";"326";"0";"2014-10-07 10:04:54.871";"2";;;;;;;;;;;;;;;;;;;;;;;;;;;;;;;;;;;;;;;;;;;;;;;;;;;;;;;;;
"nekem_nyolc";"1996";;"Windows 7";"Rachel's Experiment (D.T.)";"1.0";"2";"1";"1";"2";"1";"1";"2014-10-07 10:00:20.030";"2014-10-07 10:17:24.451";"1";"0";"0";"41";"40";"module.training_block1.exec-8611.GoNoGo1";;;;;;;;;;;;;;;;;;;;;;;"1258";"2014-10-07 10:04:58.677";"NST_correctLoc";"20";"0";"FINISHED";"LEFT";"success";"271";"0";"2014-10-07 10:04:57.413";"3";;;;;;;;;;;;;;;;;;;;;;;;;;;;;;;;;;;;;;;;;;;;;;;;;;;;;;;;;
"nekem_nyolc";"1996";;"Windows 7";"Rachel's Experiment (D.T.)";"1.0";"2";"1";"1";"2";"1";"1";"2014-10-07 10:00:20.030";"2014-10-07 10:17:24.451";"1";"0";"0";"42";"41";"module.training_block1.exec-8611.GoNoGo1";;;;;;;;;;;;;;;;;;;;;;;"1258";"2014-10-07 10:05:01.220";"NST_correctLoc";"19";"0";"FINISHED";"LEFT";"success";"513";"0";"2014-10-07 10:04:59.956";"3";;;;;;;;;;;;;;;;;;;;;;;;;;;;;;;;;;;;;;;;;;;;;;;;;;;;;;;;;
"nekem_nyolc";"1996";;"Windows 7";"Rachel's Experiment (D.T.)";"1.0";"2";"1";"1";"2";"1";"1";"2014-10-07 10:00:20.030";"2014-10-07 10:17:24.451";"1";"0";"0";"43";"42";"module.training_block1.exec-8611.GoNoGo1";;;;;;;;;;;;;;;;;;;;;;;"1257";"2014-10-07 10:05:03.763";"NST_correctLoc";"32";"0";"FINISHED";"LEFT";"success";"473";"0";"2014-10-07 10:05:02.499";"3";;;;;;;;;;;;;;;;;;;;;;;;;;;;;;;;;;;;;;;;;;;;;;;;;;;;;;;;;
"nekem_nyolc";"1996";;"Windows 7";"Rachel's Experiment (D.T.)";"1.0";"2";"1";"1";"2";"1";"1";"2014-10-07 10:00:20.030";"2014-10-07 10:17:24.451";"1";"0";"0";"44";"43";"module.training_block1.exec-8611.GoNoGo1";;;;;;;;;;;;;;;;;;;;;;;"1257";"2014-10-07 10:05:06.305";"NST_wrongLoc";"4";"1";"FINISHED";"LEFT";"failure";"443";"0";"2014-10-07 10:05:05.042";"1";;;;;;;;;;;;;;;;;;;;;;;;;;;;;;;;;;;;;;;;;;;;;;;;;;;;;;;;;
"nekem_nyolc";"1996";;"Windows 7";"Rachel's Experiment (D.T.)";"1.0";"2";"1";"1";"2";"1";"1";"2014-10-07 10:00:20.030";"2014-10-07 10:17:24.451";"1";"0";"0";"45";"44";"module.training_block1.exec-8611.GoNoGo1";;;;;;;;;;;;;;;;;;;;;;;"1258";"2014-10-07 10:05:08.848";"NST_correctLoc";"18";"0";"FINISHED";"LEFT";"success";"500";"0";"2014-10-07 10:05:07.585";"3";;;;;;;;;;;;;;;;;;;;;;;;;;;;;;;;;;;;;;;;;;;;;;;;;;;;;;;;;
"nekem_nyolc";"1996";;"Windows 7";"Rachel's Experiment (D.T.)";"1.0";"2";"1";"1";"2";"1";"1";"2014-10-07 10:00:20.030";"2014-10-07 10:17:24.451";"1";"0";"0";"46";"45";"module.training_block1.exec-8611.GoNoGo1";;;;;;;;;;;;;;;;;;;;;;;"1258";"2014-10-07 10:05:11.391";"NST_correctLoc";"11";"0";"FINISHED";"LEFT";"success";"397";"0";"2014-10-07 10:05:10.127";"2";;;;;;;;;;;;;;;;;;;;;;;;;;;;;;;;;;;;;;;;;;;;;;;;;;;;;;;;;
"nekem_nyolc";"1996";;"Windows 7";"Rachel's Experiment (D.T.)";"1.0";"2";"1";"1";"2";"1";"1";"2014-10-07 10:00:20.030";"2014-10-07 10:17:24.451";"1";"0";"0";"47";"46";"module.training_block1.exec-8611.GoNoGo1";;;;;;;;;;;;;;;;;;;;;;;"1257";"2014-10-07 10:05:13.934";"NST_correctLoc";"28";"1";"FINISHED";"RIGHT";"success";"342";"0";"2014-10-07 10:05:12.670";"3";;;;;;;;;;;;;;;;;;;;;;;;;;;;;;;;;;;;;;;;;;;;;;;;;;;;;;;;;
"nekem_nyolc";"1996";;"Windows 7";"Rachel's Experiment (D.T.)";"1.0";"2";"1";"1";"2";"1";"1";"2014-10-07 10:00:20.030";"2014-10-07 10:17:24.451";"1";"0";"0";"48";"47";"module.training_block1.exec-8611.GoNoGo1";;;;;;;;;;;;;;;;;;;;;;;"1257";"2014-10-07 10:05:16.477";"NST_correctLoc";"31";"0";"FINISHED";"LEFT";"success";"360";"0";"2014-10-07 10:05:15.213";"3";;;;;;;;;;;;;;;;;;;;;;;;;;;;;;;;;;;;;;;;;;;;;;;;;;;;;;;;;
"nekem_nyolc";"1996";;"Windows 7";"Rachel's Experiment (D.T.)";"1.0";"2";"1";"1";"2";"1";"1";"2014-10-07 10:00:20.030";"2014-10-07 10:17:24.451";"1";"0";"0";"49";"48";"module.training_block1.exec-8611.GoNoGo1";;;;;;;;;;;;;;;;;;;;;;;"1258";"2014-10-07 10:05:19.019";"NST_correctLoc";"34";"0";"FINISHED";"LEFT";"success";"433";"0";"2014-10-07 10:05:17.756";"3";;;;;;;;;;;;;;;;;;;;;;;;;;;;;;;;;;;;;;;;;;;;;;;;;;;;;;;;;
"nekem_nyolc";"1996";;"Windows 7";"Rachel's Experiment (D.T.)";"1.0";"2";"1";"1";"2";"1";"1";"2014-10-07 10:00:20.030";"2014-10-07 10:17:24.451";"1";"0";"0";"50";"49";"module.training_block1.exec-8611.GoNoGo1";;;;;;;;;;;;;;;;;;;;;;;"1257";"2014-10-07 10:05:21.562";"NST_correctLoc";"8";"1";"FINISHED";"RIGHT";"success";"714";"0";"2014-10-07 10:05:20.299";"1";;;;;;;;;;;;;;;;;;;;;;;;;;;;;;;;;;;;;;;;;;;;;;;;;;;;;;;;;
"nekem_nyolc";"1996";;"Windows 7";"Rachel's Experiment (D.T.)";"1.0";"2";"1";"1";"2";"1";"1";"2014-10-07 10:00:20.030";"2014-10-07 10:17:24.451";"1";"0";"0";"51";"50";"module.training_block1.exec-8611.GoNoGo1";;;;;;;;;;;;;;;;;;;;;;;"1258";"2014-10-07 10:05:24.105";"NST_correctLoc";"22";"0";"FINISHED";"LEFT";"success";"451";"0";"2014-10-07 10:05:22.841";"3";;;;;;;;;;;;;;;;;;;;;;;;;;;;;;;;;;;;;;;;;;;;;;;;;;;;;;;;;
"nekem_nyolc";"1996";;"Windows 7";"Rachel's Experiment (D.T.)";"1.0";"2";"1";"1";"2";"1";"1";"2014-10-07 10:00:20.030";"2014-10-07 10:17:24.451";"1";"0";"0";"52";"51";"module.training_block2.exec-8115.GoNoGo2";;;;;;;;;;;;;;;;;;;;;;;;;;;;;;;;;;;"1261";"2014-10-07 10:05:35.618";"NST_correctLoc";"28";"1";"FINISHED";"RIGHT";"success";"462";"0";"2014-10-07 10:05:34.354";"3";;;;;;;;;;;;;;;;;;;;;;;;;;;;;;;;;;;;;;;;;;;;;
"nekem_nyolc";"1996";;"Windows 7";"Rachel's Experiment (D.T.)";"1.0";"2";"1";"1";"2";"1";"1";"2014-10-07 10:00:20.030";"2014-10-07 10:17:24.451";"1";"0";"0";"53";"52";"module.training_block2.exec-8115.GoNoGo2";;;;;;;;;;;;;;;;;;;;;;;;;;;;;;;;;;;"1261";"2014-10-07 10:05:38.161";"NST_correctLoc";"8";"1";"FINISHED";"RIGHT";"success";"423";"0";"2014-10-07 10:05:36.897";"1";;;;;;;;;;;;;;;;;;;;;;;;;;;;;;;;;;;;;;;;;;;;;
"nekem_nyolc";"1996";;"Windows 7";"Rachel's Experiment (D.T.)";"1.0";"2";"1";"1";"2";"1";"1";"2014-10-07 10:00:20.030";"2014-10-07 10:17:24.451";"1";"0";"0";"54";"53";"module.training_block2.exec-8115.GoNoGo2";;;;;;;;;;;;;;;;;;;;;;;;;;;;;;;;;;;"1261";"2014-10-07 10:05:40.703";"NST_correctLoc";"18";"1";"FINISHED";"RIGHT";"success";"472";"0";"2014-10-07 10:05:39.440";"3";;;;;;;;;;;;;;;;;;;;;;;;;;;;;;;;;;;;;;;;;;;;;
"nekem_nyolc";"1996";;"Windows 7";"Rachel's Experiment (D.T.)";"1.0";"2";"1";"1";"2";"1";"1";"2014-10-07 10:00:20.030";"2014-10-07 10:17:24.451";"1";"0";"0";"55";"54";"module.training_block2.exec-8115.GoNoGo2";;;;;;;;;;;;;;;;;;;;;;;;;;;;;;;;;;;"1261";"2014-10-07 10:05:43.246";"NST_correctLoc";"14";"0";"FINISHED";"LEFT";"success";"321";"0";"2014-10-07 10:05:41.983";"2";;;;;;;;;;;;;;;;;;;;;;;;;;;;;;;;;;;;;;;;;;;;;
"nekem_nyolc";"1996";;"Windows 7";"Rachel's Experiment (D.T.)";"1.0";"2";"1";"1";"2";"1";"1";"2014-10-07 10:00:20.030";"2014-10-07 10:17:24.451";"1";"0";"0";"56";"55";"module.training_block2.exec-8115.GoNoGo2";;;;;;;;;;;;;;;;;;;;;;;;;;;;;;;;;;;"1261";"2014-10-07 10:05:45.789";"NST_correctLoc";"34";"1";"FINISHED";"RIGHT";"success";"291";"0";"2014-10-07 10:05:44.525";"3";;;;;;;;;;;;;;;;;;;;;;;;;;;;;;;;;;;;;;;;;;;;;
"nekem_nyolc";"1996";;"Windows 7";"Rachel's Experiment (D.T.)";"1.0";"2";"1";"1";"2";"1";"1";"2014-10-07 10:00:20.030";"2014-10-07 10:17:24.451";"1";"0";"0";"57";"56";"module.training_block2.exec-8115.GoNoGo2";;;;;;;;;;;;;;;;;;;;;;;;;;;;;;;;;;;"1261";"2014-10-07 10:05:48.332";"NST_correctLoc";"0";"1";"FINISHED";"RIGHT";"success";"348";"0";"2014-10-07 10:05:47.068";"1";;;;;;;;;;;;;;;;;;;;;;;;;;;;;;;;;;;;;;;;;;;;;
"nekem_nyolc";"1996";;"Windows 7";"Rachel's Experiment (D.T.)";"1.0";"2";"1";"1";"2";"1";"1";"2014-10-07 10:00:20.030";"2014-10-07 10:17:24.451";"1";"0";"0";"58";"57";"module.training_block2.exec-8115.GoNoGo2";;;;;;;;;;;;;;;;;;;;;;;;;;;;;;;;;;;"1261";"2014-10-07 10:05:50.875";"NST_correctLoc";"3";"1";"FINISHED";"RIGHT";"success";"317";"0";"2014-10-07 10:05:49.611";"1";;;;;;;;;;;;;;;;;;;;;;;;;;;;;;;;;;;;;;;;;;;;;
"nekem_nyolc";"1996";;"Windows 7";"Rachel's Experiment (D.T.)";"1.0";"2";"1";"1";"2";"1";"1";"2014-10-07 10:00:20.030";"2014-10-07 10:17:24.451";"1";"0";"0";"59";"58";"module.training_block2.exec-8115.GoNoGo2";;;;;;;;;;;;;;;;;;;;;;;;;;;;;;;;;;;"1261";"2014-10-07 10:05:53.417";"NST_correctLoc";"32";"0";"FINISHED";"LEFT";"success";"470";"0";"2014-10-07 10:05:52.154";"3";;;;;;;;;;;;;;;;;;;;;;;;;;;;;;;;;;;;;;;;;;;;;
"nekem_nyolc";"1996";;"Windows 7";"Rachel's Experiment (D.T.)";"1.0";"2";"1";"1";"2";"1";"1";"2014-10-07 10:00:20.030";"2014-10-07 10:17:24.451";"1";"0";"0";"60";"59";"module.training_block2.exec-8115.GoNoGo2";;;;;;;;;;;;;;;;;;;;;;;;;;;;;;;;;;;"1261";"2014-10-07 10:05:55.960";"NST_wrongLoc";"29";"1";"FINISHED";"LEFT";"failure";"367";"0";"2014-10-07 10:05:54.697";"3";;;;;;;;;;;;;;;;;;;;;;;;;;;;;;;;;;;;;;;;;;;;;
"nekem_nyolc";"1996";;"Windows 7";"Rachel's Experiment (D.T.)";"1.0";"2";"1";"1";"2";"1";"1";"2014-10-07 10:00:20.030";"2014-10-07 10:17:24.451";"1";"0";"0";"61";"60";"module.training_block2.exec-8115.GoNoGo2";;;;;;;;;;;;;;;;;;;;;;;;;;;;;;;;;;;"1261";"2014-10-07 10:05:58.519";"NST_correctLoc";"11";"1";"FINISHED";"RIGHT";"success";"409";"0";"2014-10-07 10:05:57.255";"2";;;;;;;;;;;;;;;;;;;;;;;;;;;;;;;;;;;;;;;;;;;;;
"nekem_nyolc";"1996";;"Windows 7";"Rachel's Experiment (D.T.)";"1.0";"2";"1";"1";"2";"1";"1";"2014-10-07 10:00:20.030";"2014-10-07 10:17:24.451";"1";"0";"0";"62";"61";"module.training_block2.exec-8115.GoNoGo2";;;;;;;;;;;;;;;;;;;;;;;;;;;;;;;;;;;"1261";"2014-10-07 10:06:01.061";"NST_correctLoc";"13";"1";"FINISHED";"RIGHT";"success";"330";"0";"2014-10-07 10:05:59.798";"2";;;;;;;;;;;;;;;;;;;;;;;;;;;;;;;;;;;;;;;;;;;;;
"nekem_nyolc";"1996";;"Windows 7";"Rachel's Experiment (D.T.)";"1.0";"2";"1";"1";"2";"1";"1";"2014-10-07 10:00:20.030";"2014-10-07 10:17:24.451";"1";"0";"0";"63";"62";"module.training_block2.exec-8115.GoNoGo2";;;;;;;;;;;;;;;;;;;;;;;;;;;;;;;;;;;"1261";"2014-10-07 10:06:03.604";"NST_correctLoc";"23";"1";"FINISHED";"RIGHT";"success";"387";"0";"2014-10-07 10:06:02.341";"3";;;;;;;;;;;;;;;;;;;;;;;;;;;;;;;;;;;;;;;;;;;;;
"nekem_nyolc";"1996";;"Windows 7";"Rachel's Experiment (D.T.)";"1.0";"2";"1";"1";"2";"1";"1";"2014-10-07 10:00:20.030";"2014-10-07 10:17:24.451";"1";"0";"0";"64";"63";"module.training_block2.exec-8115.GoNoGo2";;;;;;;;;;;;;;;;;;;;;;;;;;;;;;;;;;;"1261";"2014-10-07 10:06:06.147";"NST_correctLoc";"20";"0";"FINISHED";"LEFT";"success";"444";"0";"2014-10-07 10:06:04.883";"3";;;;;;;;;;;;;;;;;;;;;;;;;;;;;;;;;;;;;;;;;;;;;
"nekem_nyolc";"1996";;"Windows 7";"Rachel's Experiment (D.T.)";"1.0";"2";"1";"1";"2";"1";"1";"2014-10-07 10:00:20.030";"2014-10-07 10:17:24.451";"1";"0";"0";"65";"64";"module.training_block2.exec-8115.GoNoGo2";;;;;;;;;;;;;;;;;;;;;;;;;;;;;;;;;;;"1257";"2014-10-07 10:06:08.690";"NST_correctLoc";"1";"1";"FINISHED";"RIGHT";"success";"305";"0";"2014-10-07 10:06:07.426";"1";;;;;;;;;;;;;;;;;;;;;;;;;;;;;;;;;;;;;;;;;;;;;
"nekem_nyolc";"1996";;"Windows 7";"Rachel's Experiment (D.T.)";"1.0";"2";"1";"1";"2";"1";"1";"2014-10-07 10:00:20.030";"2014-10-07 10:17:24.451";"1";"0";"0";"66";"65";"module.training_block2.exec-8115.GoNoGo2";;;;;;;;;;;;;;;;;;;;;;;;;;;;;;;;;;;"1261";"2014-10-07 10:06:11.233";"NST_correctLoc";"4";"0";"FINISHED";"LEFT";"success";"543";"0";"2014-10-07 10:06:09.969";"1";;;;;;;;;;;;;;;;;;;;;;;;;;;;;;;;;;;;;;;;;;;;;
"nekem_nyolc";"1996";;"Windows 7";"Rachel's Experiment (D.T.)";"1.0";"2";"1";"1";"2";"1";"1";"2014-10-07 10:00:20.030";"2014-10-07 10:17:24.451";"1";"0";"0";"67";"66";"module.training_block2.exec-8115.GoNoGo2";;;;;;;;;;;;;;;;;;;;;;;;;;;;;;;;;;;"1258";"2014-10-07 10:06:13.775";"NST_correctLoc";"24";"0";"FINISHED";"LEFT";"success";"412";"0";"2014-10-07 10:06:12.512";"3";;;;;;;;;;;;;;;;;;;;;;;;;;;;;;;;;;;;;;;;;;;;;
"nekem_nyolc";"1996";;"Windows 7";"Rachel's Experiment (D.T.)";"1.0";"2";"1";"1";"2";"1";"1";"2014-10-07 10:00:20.030";"2014-10-07 10:17:24.451";"1";"0";"0";"68";"67";"module.training_block2.exec-8115.GoNoGo2";;;;;;;;;;;;;;;;;;;;;;;;;;;;;;;;;;;"1258";"2014-10-07 10:06:16.318";"NST_correctLoc";"33";"0";"FINISHED";"LEFT";"success";"342";"0";"2014-10-07 10:06:15.055";"3";;;;;;;;;;;;;;;;;;;;;;;;;;;;;;;;;;;;;;;;;;;;;
"nekem_nyolc";"1996";;"Windows 7";"Rachel's Experiment (D.T.)";"1.0";"2";"1";"1";"2";"1";"1";"2014-10-07 10:00:20.030";"2014-10-07 10:17:24.451";"1";"0";"0";"69";"68";"module.training_block2.exec-8115.GoNoGo2";;;;;;;;;;;;;;;;;;;;;;;;;;;;;;;;;;;"1257";"2014-10-07 10:06:18.861";"NST_correctLoc";"6";"1";"FINISHED";"RIGHT";"success";"398";"0";"2014-10-07 10:06:17.597";"1";;;;;;;;;;;;;;;;;;;;;;;;;;;;;;;;;;;;;;;;;;;;;
"nekem_nyolc";"1996";;"Windows 7";"Rachel's Experiment (D.T.)";"1.0";"2";"1";"1";"2";"1";"1";"2014-10-07 10:00:20.030";"2014-10-07 10:17:24.451";"1";"0";"0";"70";"69";"module.training_block2.exec-8115.GoNoGo2";;;;;;;;;;;;;;;;;;;;;;;;;;;;;;;;;;;"1261";"2014-10-07 10:06:21.404";"NST_correctLoc";"31";"0";"FINISHED";"LEFT";"success";"436";"0";"2014-10-07 10:06:20.140";"3";;;;;;;;;;;;;;;;;;;;;;;;;;;;;;;;;;;;;;;;;;;;;
"nekem_nyolc";"1996";;"Windows 7";"Rachel's Experiment (D.T.)";"1.0";"2";"1";"1";"2";"1";"1";"2014-10-07 10:00:20.030";"2014-10-07 10:17:24.451";"1";"0";"0";"71";"70";"module.training_block2.exec-8115.GoNoGo2";;;;;;;;;;;;;;;;;;;;;;;;;;;;;;;;;;;"1261";"2014-10-07 10:06:23.947";"NST_correctLoc";"25";"0";"FINISHED";"LEFT";"success";"381";"0";"2014-10-07 10:06:22.683";"3";;;;;;;;;;;;;;;;;;;;;;;;;;;;;;;;;;;;;;;;;;;;;
"nekem_nyolc";"1996";;"Windows 7";"Rachel's Experiment (D.T.)";"1.0";"2";"1";"1";"2";"1";"1";"2014-10-07 10:00:20.030";"2014-10-07 10:17:24.451";"1";"0";"0";"72";"71";"module.training_block2.exec-8115.GoNoGo2";;;;;;;;;;;;;;;;;;;;;;;;;;;;;;;;;;;"1261";"2014-10-07 10:06:26.489";"NST_correctLoc";"35";"1";"FINISHED";"RIGHT";"success";"326";"0";"2014-10-07 10:06:25.226";"3";;;;;;;;;;;;;;;;;;;;;;;;;;;;;;;;;;;;;;;;;;;;;
"nekem_nyolc";"1996";;"Windows 7";"Rachel's Experiment (D.T.)";"1.0";"2";"1";"1";"2";"1";"1";"2014-10-07 10:00:20.030";"2014-10-07 10:17:24.451";"1";"0";"0";"73";"72";"module.training_block2.exec-8115.GoNoGo2";;;;;;;;;;;;;;;;;;;;;;;;;;;;;;;;;;;"1257";"2014-10-07 10:06:29.048";"NST_correctLoc";"26";"1";"FINISHED";"RIGHT";"success";"387";"0";"2014-10-07 10:06:27.784";"3";;;;;;;;;;;;;;;;;;;;;;;;;;;;;;;;;;;;;;;;;;;;;
"nekem_nyolc";"1996";;"Windows 7";"Rachel's Experiment (D.T.)";"1.0";"2";"1";"1";"2";"1";"1";"2014-10-07 10:00:20.030";"2014-10-07 10:17:24.451";"1";"0";"0";"74";"73";"module.training_block2.exec-8115.GoNoGo2";;;;;;;;;;;;;;;;;;;;;;;;;;;;;;;;;;;"1258";"2014-10-07 10:06:31.591";"NST_correctLoc";"2";"0";"FINISHED";"LEFT";"success";"333";"0";"2014-10-07 10:06:30.327";"1";;;;;;;;;;;;;;;;;;;;;;;;;;;;;;;;;;;;;;;;;;;;;
"nekem_nyolc";"1996";;"Windows 7";"Rachel's Experiment (D.T.)";"1.0";"2";"1";"1";"2";"1";"1";"2014-10-07 10:00:20.030";"2014-10-07 10:17:24.451";"1";"0";"0";"75";"74";"module.training_block2.exec-8115.GoNoGo2";;;;;;;;;;;;;;;;;;;;;;;;;;;;;;;;;;;"1261";"2014-10-07 10:06:34.133";"NST_correctLoc";"17";"1";"FINISHED";"RIGHT";"success";"314";"0";"2014-10-07 10:06:32.870";"2";;;;;;;;;;;;;;;;;;;;;;;;;;;;;;;;;;;;;;;;;;;;;
"nekem_nyolc";"1996";;"Windows 7";"Rachel's Experiment (D.T.)";"1.0";"2";"1";"1";"2";"1";"1";"2014-10-07 10:00:20.030";"2014-10-07 10:17:24.451";"1";"0";"0";"76";"75";"module.training_block2.exec-8115.GoNoGo2";;;;;;;;;;;;;;;;;;;;;;;;;;;;;;;;;;;"1257";"2014-10-07 10:06:36.676";"NST_correctLoc";"21";"0";"FINISHED";"LEFT";"success";"279";"0";"2014-10-07 10:06:35.413";"3";;;;;;;;;;;;;;;;;;;;;;;;;;;;;;;;;;;;;;;;;;;;;
"nekem_nyolc";"1996";;"Windows 7";"Rachel's Experiment (D.T.)";"1.0";"2";"1";"1";"2";"1";"1";"2014-10-07 10:00:20.030";"2014-10-07 10:17:24.451";"1";"0";"0";"77";"76";"module.training_block2.exec-8115.GoNoGo2";;;;;;;;;;;;;;;;;;;;;;;;;;;;;;;;;;;"1257";"2014-10-07 10:06:39.219";"NST_correctLoc";"27";"1";"FINISHED";"RIGHT";"success";"328";"0";"2014-10-07 10:06:37.955";"3";;;;;;;;;;;;;;;;;;;;;;;;;;;;;;;;;;;;;;;;;;;;;
"nekem_nyolc";"1996";;"Windows 7";"Rachel's Experiment (D.T.)";"1.0";"2";"1";"1";"2";"1";"1";"2014-10-07 10:00:20.030";"2014-10-07 10:17:24.451";"1";"0";"0";"78";"77";"module.training_block2.exec-8115.GoNoGo2";;;;;;;;;;;;;;;;;;;;;;;;;;;;;;;;;;;"1261";"2014-10-07 10:06:41.762";"NST_correctLoc";"12";"0";"FINISHED";"LEFT";"success";"326";"0";"2014-10-07 10:06:40.498";"2";;;;;;;;;;;;;;;;;;;;;;;;;;;;;;;;;;;;;;;;;;;;;
"nekem_nyolc";"1996";;"Windows 7";"Rachel's Experiment (D.T.)";"1.0";"2";"1";"1";"2";"1";"1";"2014-10-07 10:00:20.030";"2014-10-07 10:17:24.451";"1";"0";"0";"79";"78";"module.training_block2.exec-8115.GoNoGo2";;;;;;;;;;;;;;;;;;;;;;;;;;;;;;;;;;;"1257";"2014-10-07 10:06:44.305";"NST_correctLoc";"15";"1";"FINISHED";"RIGHT";"success";"282";"0";"2014-10-07 10:06:43.041";"2";;;;;;;;;;;;;;;;;;;;;;;;;;;;;;;;;;;;;;;;;;;;;
"nekem_nyolc";"1996";;"Windows 7";"Rachel's Experiment (D.T.)";"1.0";"2";"1";"1";"2";"1";"1";"2014-10-07 10:00:20.030";"2014-10-07 10:17:24.451";"1";"0";"0";"80";"79";"module.training_block2.exec-8115.GoNoGo2";;;;;;;;;;;;;;;;;;;;;;;;;;;;;;;;;;;"1258";"2014-10-07 10:06:46.847";"NST_correctLoc";"30";"0";"FINISHED";"LEFT";"success";"308";"0";"2014-10-07 10:06:45.584";"3";;;;;;;;;;;;;;;;;;;;;;;;;;;;;;;;;;;;;;;;;;;;;
"nekem_nyolc";"1996";;"Windows 7";"Rachel's Experiment (D.T.)";"1.0";"2";"1";"1";"2";"1";"1";"2014-10-07 10:00:20.030";"2014-10-07 10:17:24.451";"1";"0";"0";"81";"80";"module.training_block2.exec-8115.GoNoGo2";;;;;;;;;;;;;;;;;;;;;;;;;;;;;;;;;;;"1261";"2014-10-07 10:06:49.390";"NST_correctLoc";"9";"0";"FINISHED";"LEFT";"success";"417";"0";"2014-10-07 10:06:48.127";"2";;;;;;;;;;;;;;;;;;;;;;;;;;;;;;;;;;;;;;;;;;;;;
"nekem_nyolc";"1996";;"Windows 7";"Rachel's Experiment (D.T.)";"1.0";"2";"1";"1";"2";"1";"1";"2014-10-07 10:00:20.030";"2014-10-07 10:17:24.451";"1";"0";"0";"82";"81";"module.training_block2.exec-8115.GoNoGo2";;;;;;;;;;;;;;;;;;;;;;;;;;;;;;;;;;;"1261";"2014-10-07 10:06:51.933";"NST_correctLoc";"10";"0";"FINISHED";"LEFT";"success";"314";"0";"2014-10-07 10:06:50.669";"2";;;;;;;;;;;;;;;;;;;;;;;;;;;;;;;;;;;;;;;;;;;;;
"nekem_nyolc";"1996";;"Windows 7";"Rachel's Experiment (D.T.)";"1.0";"2";"1";"1";"2";"1";"1";"2014-10-07 10:00:20.030";"2014-10-07 10:17:24.451";"1";"0";"0";"83";"82";"module.training_block2.exec-8115.GoNoGo2";;;;;;;;;;;;;;;;;;;;;;;;;;;;;;;;;;;"1261";"2014-10-07 10:06:54.476";"NST_correctLoc";"16";"0";"FINISHED";"LEFT";"success";"355";"0";"2014-10-07 10:06:53.212";"2";;;;;;;;;;;;;;;;;;;;;;;;;;;;;;;;;;;;;;;;;;;;;
"nekem_nyolc";"1996";;"Windows 7";"Rachel's Experiment (D.T.)";"1.0";"2";"1";"1";"2";"1";"1";"2014-10-07 10:00:20.030";"2014-10-07 10:17:24.451";"1";"0";"0";"84";"83";"module.training_block2.exec-8115.GoNoGo2";;;;;;;;;;;;;;;;;;;;;;;;;;;;;;;;;;;"1261";"2014-10-07 10:06:57.019";"NST_correctLoc";"5";"1";"FINISHED";"RIGHT";"success";"452";"0";"2014-10-07 10:06:55.755";"1";;;;;;;;;;;;;;;;;;;;;;;;;;;;;;;;;;;;;;;;;;;;;
"nekem_nyolc";"1996";;"Windows 7";"Rachel's Experiment (D.T.)";"1.0";"2";"1";"1";"2";"1";"1";"2014-10-07 10:00:20.030";"2014-10-07 10:17:24.451";"1";"0";"0";"85";"84";"module.training_block2.exec-8115.GoNoGo2";;;;;;;;;;;;;;;;;;;;;;;;;;;;;;;;;;;"1261";"2014-10-07 10:06:59.561";"NST_correctLoc";"19";"0";"FINISHED";"LEFT";"success";"382";"0";"2014-10-07 10:06:58.298";"3";;;;;;;;;;;;;;;;;;;;;;;;;;;;;;;;;;;;;;;;;;;;;
"nekem_nyolc";"1996";;"Windows 7";"Rachel's Experiment (D.T.)";"1.0";"2";"1";"1";"2";"1";"1";"2014-10-07 10:00:20.030";"2014-10-07 10:17:24.451";"1";"0";"0";"86";"85";"module.training_block2.exec-8115.GoNoGo2";;;;;;;;;;;;;;;;;;;;;;;;;;;;;;;;;;;"1261";"2014-10-07 10:07:02.104";"NST_correctLoc";"22";"0";"FINISHED";"LEFT";"success";"343";"0";"2014-10-07 10:07:00.841";"3";;;;;;;;;;;;;;;;;;;;;;;;;;;;;;;;;;;;;;;;;;;;;
"nekem_nyolc";"1996";;"Windows 7";"Rachel's Experiment (D.T.)";"1.0";"2";"1";"1";"2";"1";"1";"2014-10-07 10:00:20.030";"2014-10-07 10:17:24.451";"1";"0";"0";"87";"86";"module.training_block2.exec-8115.GoNoGo2";;;;;;;;;;;;;;;;;;;;;;;;;;;;;;;;;;;"1261";"2014-10-07 10:07:04.647";"NST_correctLoc";"7";"0";"FINISHED";"LEFT";"success";"352";"0";"2014-10-07 10:07:03.383";"1";;;;;;;;;;;;;;;;;;;;;;;;;;;;;;;;;;;;;;;;;;;;;
"nekem_nyolc";"1996";;"Windows 7";"Rachel's Experiment (D.T.)";"1.0";"2";"1";"1";"2";"1";"1";"2014-10-07 10:00:20.030";"2014-10-07 10:17:24.451";"1";"0";"0";"88";"87";"module.training_block3.exec-2449.GoNoGo3";;;;;;;;;;;;;;;;;;;;;;;;;;;;;;;;;;;;;;;;;;;;;;;"1261";"2014-10-07 10:07:15.427";"NST_correctLoc";"22";"0";"FINISHED";"LEFT";"success";"444";"0";"2014-10-07 10:07:14.163";"3";;;;;;;;;;;;;;;;;;;;;;;;;;;;;;;;;
"nekem_nyolc";"1996";;"Windows 7";"Rachel's Experiment (D.T.)";"1.0";"2";"1";"1";"2";"1";"1";"2014-10-07 10:00:20.030";"2014-10-07 10:17:24.451";"1";"0";"0";"89";"88";"module.training_block3.exec-2449.GoNoGo3";;;;;;;;;;;;;;;;;;;;;;;;;;;;;;;;;;;;;;;;;;;;;;;"1261";"2014-10-07 10:07:17.969";"NST_correctLoc";"15";"0";"FINISHED";"LEFT";"success";"422";"0";"2014-10-07 10:07:16.706";"2";;;;;;;;;;;;;;;;;;;;;;;;;;;;;;;;;
"nekem_nyolc";"1996";;"Windows 7";"Rachel's Experiment (D.T.)";"1.0";"2";"1";"1";"2";"1";"1";"2014-10-07 10:00:20.030";"2014-10-07 10:17:24.451";"1";"0";"0";"90";"89";"module.training_block3.exec-2449.GoNoGo3";;;;;;;;;;;;;;;;;;;;;;;;;;;;;;;;;;;;;;;;;;;;;;;"1261";"2014-10-07 10:07:20.512";"NST_correctLoc";"10";"0";"FINISHED";"LEFT";"success";"447";"0";"2014-10-07 10:07:19.249";"2";;;;;;;;;;;;;;;;;;;;;;;;;;;;;;;;;
"nekem_nyolc";"1996";;"Windows 7";"Rachel's Experiment (D.T.)";"1.0";"2";"1";"1";"2";"1";"1";"2014-10-07 10:00:20.030";"2014-10-07 10:17:24.451";"1";"0";"0";"91";"90";"module.training_block3.exec-2449.GoNoGo3";;;;;;;;;;;;;;;;;;;;;;;;;;;;;;;;;;;;;;;;;;;;;;;"1261";"2014-10-07 10:07:23.055";"NST_correctLoc";"5";"0";"FINISHED";"LEFT";"success";"608";"0";"2014-10-07 10:07:21.791";"1";;;;;;;;;;;;;;;;;;;;;;;;;;;;;;;;;
"nekem_nyolc";"1996";;"Windows 7";"Rachel's Experiment (D.T.)";"1.0";"2";"1";"1";"2";"1";"1";"2014-10-07 10:00:20.030";"2014-10-07 10:17:24.451";"1";"0";"0";"92";"91";"module.training_block3.exec-2449.GoNoGo3";;;;;;;;;;;;;;;;;;;;;;;;;;;;;;;;;;;;;;;;;;;;;;;"1261";"2014-10-07 10:07:25.598";"NST_correctLoc";"11";"1";"FINISHED";"RIGHT";"success";"625";"0";"2014-10-07 10:07:24.334";"2";;;;;;;;;;;;;;;;;;;;;;;;;;;;;;;;;
"nekem_nyolc";"1996";;"Windows 7";"Rachel's Experiment (D.T.)";"1.0";"2";"1";"1";"2";"1";"1";"2014-10-07 10:00:20.030";"2014-10-07 10:17:24.451";"1";"0";"0";"93";"92";"module.training_block3.exec-2449.GoNoGo3";;;;;;;;;;;;;;;;;;;;;;;;;;;;;;;;;;;;;;;;;;;;;;;"1261";"2014-10-07 10:07:28.141";"NST_correctLoc";"34";"1";"FINISHED";"RIGHT";"success";"458";"0";"2014-10-07 10:07:26.877";"3";;;;;;;;;;;;;;;;;;;;;;;;;;;;;;;;;
"nekem_nyolc";"1996";;"Windows 7";"Rachel's Experiment (D.T.)";"1.0";"2";"1";"1";"2";"1";"1";"2014-10-07 10:00:20.030";"2014-10-07 10:17:24.451";"1";"0";"0";"94";"93";"module.training_block3.exec-2449.GoNoGo3";;;;;;;;;;;;;;;;;;;;;;;;;;;;;;;;;;;;;;;;;;;;;;;"1261";"2014-10-07 10:07:30.683";"NST_correctLoc";"26";"0";"FINISHED";"LEFT";"success";"564";"0";"2014-10-07 10:07:29.420";"3";;;;;;;;;;;;;;;;;;;;;;;;;;;;;;;;;
"nekem_nyolc";"1996";;"Windows 7";"Rachel's Experiment (D.T.)";"1.0";"2";"1";"1";"2";"1";"1";"2014-10-07 10:00:20.030";"2014-10-07 10:17:24.451";"1";"0";"0";"95";"94";"module.training_block3.exec-2449.GoNoGo3";;;;;;;;;;;;;;;;;;;;;;;;;;;;;;;;;;;;;;;;;;;;;;;"1261";"2014-10-07 10:07:33.226";"NST_correctLoc";"29";"0";"FINISHED";"LEFT";"success";"437";"0";"2014-10-07 10:07:31.963";"3";;;;;;;;;;;;;;;;;;;;;;;;;;;;;;;;;
"nekem_nyolc";"1996";;"Windows 7";"Rachel's Experiment (D.T.)";"1.0";"2";"1";"1";"2";"1";"1";"2014-10-07 10:00:20.030";"2014-10-07 10:17:24.451";"1";"0";"0";"96";"95";"module.training_block3.exec-2449.GoNoGo3";;;;;;;;;;;;;;;;;;;;;;;;;;;;;;;;;;;;;;;;;;;;;;;"1261";"2014-10-07 10:07:35.769";"NST_correctLoc";"25";"0";"FINISHED";"LEFT";"success";"446";"0";"2014-10-07 10:07:34.505";"3";;;;;;;;;;;;;;;;;;;;;;;;;;;;;;;;;
"nekem_nyolc";"1996";;"Windows 7";"Rachel's Experiment (D.T.)";"1.0";"2";"1";"1";"2";"1";"1";"2014-10-07 10:00:20.030";"2014-10-07 10:17:24.451";"1";"0";"0";"97";"96";"module.training_block3.exec-2449.GoNoGo3";;;;;;;;;;;;;;;;;;;;;;;;;;;;;;;;;;;;;;;;;;;;;;;"1261";"2014-10-07 10:07:38.312";"NST_wrongLoc";"6";"0";"FINISHED";"RIGHT";"failure";"551";"0";"2014-10-07 10:07:37.048";"1";;;;;;;;;;;;;;;;;;;;;;;;;;;;;;;;;
"nekem_nyolc";"1996";;"Windows 7";"Rachel's Experiment (D.T.)";"1.0";"2";"1";"1";"2";"1";"1";"2014-10-07 10:00:20.030";"2014-10-07 10:17:24.451";"1";"0";"0";"98";"97";"module.training_block3.exec-2449.GoNoGo3";;;;;;;;;;;;;;;;;;;;;;;;;;;;;;;;;;;;;;;;;;;;;;;"1261";"2014-10-07 10:07:40.855";"NST_correctLoc";"31";"0";"FINISHED";"LEFT";"success";"504";"0";"2014-10-07 10:07:39.591";"3";;;;;;;;;;;;;;;;;;;;;;;;;;;;;;;;;
"nekem_nyolc";"1996";;"Windows 7";"Rachel's Experiment (D.T.)";"1.0";"2";"1";"1";"2";"1";"1";"2014-10-07 10:00:20.030";"2014-10-07 10:17:24.451";"1";"0";"0";"99";"98";"module.training_block3.exec-2449.GoNoGo3";;;;;;;;;;;;;;;;;;;;;;;;;;;;;;;;;;;;;;;;;;;;;;;"1261";"2014-10-07 10:07:43.397";"NST_correctLoc";"23";"0";"FINISHED";"LEFT";"success";"369";"0";"2014-10-07 10:07:42.134";"3";;;;;;;;;;;;;;;;;;;;;;;;;;;;;;;;;
"nekem_nyolc";"1996";;"Windows 7";"Rachel's Experiment (D.T.)";"1.0";"2";"1";"1";"2";"1";"1";"2014-10-07 10:00:20.030";"2014-10-07 10:17:24.451";"1";"0";"0";"100";"99";"module.training_block3.exec-2449.GoNoGo3";;;;;;;;;;;;;;;;;;;;;;;;;;;;;;;;;;;;;;;;;;;;;;;"1261";"2014-10-07 10:07:45.940";"NST_correctLoc";"32";"1";"FINISHED";"RIGHT";"success";"523";"0";"2014-10-07 10:07:44.677";"3";;;;;;;;;;;;;;;;;;;;;;;;;;;;;;;;;
"nekem_nyolc";"1996";;"Windows 7";"Rachel's Experiment (D.T.)";"1.0";"2";"1";"1";"2";"1";"1";"2014-10-07 10:00:20.030";"2014-10-07 10:17:24.451";"1";"0";"0";"101";"100";"module.training_block3.exec-2449.GoNoGo3";;;;;;;;;;;;;;;;;;;;;;;;;;;;;;;;;;;;;;;;;;;;;;;"1261";"2014-10-07 10:07:48.483";"NST_correctLoc";"7";"1";"FINISHED";"RIGHT";"success";"420";"0";"2014-10-07 10:07:47.219";"1";;;;;;;;;;;;;;;;;;;;;;;;;;;;;;;;;
"nekem_nyolc";"1996";;"Windows 7";"Rachel's Experiment (D.T.)";"1.0";"2";"1";"1";"2";"1";"1";"2014-10-07 10:00:20.030";"2014-10-07 10:17:24.451";"1";"0";"0";"102";"101";"module.training_block3.exec-2449.GoNoGo3";;;;;;;;;;;;;;;;;;;;;;;;;;;;;;;;;;;;;;;;;;;;;;;"1261";"2014-10-07 10:07:51.026";"NST_correctLoc";"13";"1";"FINISHED";"RIGHT";"success";"661";"0";"2014-10-07 10:07:49.762";"2";;;;;;;;;;;;;;;;;;;;;;;;;;;;;;;;;
"nekem_nyolc";"1996";;"Windows 7";"Rachel's Experiment (D.T.)";"1.0";"2";"1";"1";"2";"1";"1";"2014-10-07 10:00:20.030";"2014-10-07 10:17:24.451";"1";"0";"0";"103";"102";"module.training_block3.exec-2449.GoNoGo3";;;;;;;;;;;;;;;;;;;;;;;;;;;;;;;;;;;;;;;;;;;;;;;"1261";"2014-10-07 10:07:53.569";"NST_correctLoc";"14";"1";"FINISHED";"RIGHT";"success";"614";"0";"2014-10-07 10:07:52.305";"2";;;;;;;;;;;;;;;;;;;;;;;;;;;;;;;;;
"nekem_nyolc";"1996";;"Windows 7";"Rachel's Experiment (D.T.)";"1.0";"2";"1";"1";"2";"1";"1";"2014-10-07 10:00:20.030";"2014-10-07 10:17:24.451";"1";"0";"0";"104";"103";"module.training_block3.exec-2449.GoNoGo3";;;;;;;;;;;;;;;;;;;;;;;;;;;;;;;;;;;;;;;;;;;;;;;"1261";"2014-10-07 10:07:56.111";"NST_correctLoc";"9";"0";"FINISHED";"LEFT";"success";"743";"0";"2014-10-07 10:07:54.848";"2";;;;;;;;;;;;;;;;;;;;;;;;;;;;;;;;;
"nekem_nyolc";"1996";;"Windows 7";"Rachel's Experiment (D.T.)";"1.0";"2";"1";"1";"2";"1";"1";"2014-10-07 10:00:20.030";"2014-10-07 10:17:24.451";"1";"0";"0";"105";"104";"module.training_block3.exec-2449.GoNoGo3";;;;;;;;;;;;;;;;;;;;;;;;;;;;;;;;;;;;;;;;;;;;;;;"1261";"2014-10-07 10:07:58.654";"NST_correctLoc";"19";"0";"FINISHED";"LEFT";"success";"408";"0";"2014-10-07 10:07:57.391";"3";;;;;;;;;;;;;;;;;;;;;;;;;;;;;;;;;
"nekem_nyolc";"1996";;"Windows 7";"Rachel's Experiment (D.T.)";"1.0";"2";"1";"1";"2";"1";"1";"2014-10-07 10:00:20.030";"2014-10-07 10:17:24.451";"1";"0";"0";"106";"105";"module.training_block3.exec-2449.GoNoGo3";;;;;;;;;;;;;;;;;;;;;;;;;;;;;;;;;;;;;;;;;;;;;;;"1261";"2014-10-07 10:08:01.197";"NST_correctLoc";"12";"1";"FINISHED";"RIGHT";"success";"450";"0";"2014-10-07 10:07:59.933";"2";;;;;;;;;;;;;;;;;;;;;;;;;;;;;;;;;
"nekem_nyolc";"1996";;"Windows 7";"Rachel's Experiment (D.T.)";"1.0";"2";"1";"1";"2";"1";"1";"2014-10-07 10:00:20.030";"2014-10-07 10:17:24.451";"1";"0";"0";"107";"106";"module.training_block3.exec-2449.GoNoGo3";;;;;;;;;;;;;;;;;;;;;;;;;;;;;;;;;;;;;;;;;;;;;;;"1261";"2014-10-07 10:08:03.740";"NST_correctLoc";"33";"0";"FINISHED";"LEFT";"success";"387";"0";"2014-10-07 10:08:02.476";"3";;;;;;;;;;;;;;;;;;;;;;;;;;;;;;;;;
"nekem_nyolc";"1996";;"Windows 7";"Rachel's Experiment (D.T.)";"1.0";"2";"1";"1";"2";"1";"1";"2014-10-07 10:00:20.030";"2014-10-07 10:17:24.451";"1";"0";"0";"108";"107";"module.training_block3.exec-2449.GoNoGo3";;;;;;;;;;;;;;;;;;;;;;;;;;;;;;;;;;;;;;;;;;;;;;;"1261";"2014-10-07 10:08:06.283";"NST_correctLoc";"30";"0";"FINISHED";"LEFT";"success";"652";"0";"2014-10-07 10:08:05.019";"3";;;;;;;;;;;;;;;;;;;;;;;;;;;;;;;;;
"nekem_nyolc";"1996";;"Windows 7";"Rachel's Experiment (D.T.)";"1.0";"2";"1";"1";"2";"1";"1";"2014-10-07 10:00:20.030";"2014-10-07 10:17:24.451";"1";"0";"0";"109";"108";"module.training_block3.exec-2449.GoNoGo3";;;;;;;;;;;;;;;;;;;;;;;;;;;;;;;;;;;;;;;;;;;;;;;"1262";"2014-10-07 10:08:08.825";"NST_correctLoc";"20";"0";"FINISHED";"LEFT";"success";"677";"0";"2014-10-07 10:08:07.562";"3";;;;;;;;;;;;;;;;;;;;;;;;;;;;;;;;;
"nekem_nyolc";"1996";;"Windows 7";"Rachel's Experiment (D.T.)";"1.0";"2";"1";"1";"2";"1";"1";"2014-10-07 10:00:20.030";"2014-10-07 10:17:24.451";"1";"0";"0";"110";"109";"module.training_block3.exec-2449.GoNoGo3";;;;;;;;;;;;;;;;;;;;;;;;;;;;;;;;;;;;;;;;;;;;;;;"1261";"2014-10-07 10:08:11.368";"NST_correctLoc";"16";"0";"FINISHED";"LEFT";"success";"478";"0";"2014-10-07 10:08:10.105";"2";;;;;;;;;;;;;;;;;;;;;;;;;;;;;;;;;
"nekem_nyolc";"1996";;"Windows 7";"Rachel's Experiment (D.T.)";"1.0";"2";"1";"1";"2";"1";"1";"2014-10-07 10:00:20.030";"2014-10-07 10:17:24.451";"1";"0";"0";"111";"110";"module.training_block3.exec-2449.GoNoGo3";;;;;;;;;;;;;;;;;;;;;;;;;;;;;;;;;;;;;;;;;;;;;;;"1261";"2014-10-07 10:08:13.895";"NST_correctLoc";"24";"0";"FINISHED";"LEFT";"success";"455";"0";"2014-10-07 10:08:12.632";"3";;;;;;;;;;;;;;;;;;;;;;;;;;;;;;;;;
"nekem_nyolc";"1996";;"Windows 7";"Rachel's Experiment (D.T.)";"1.0";"2";"1";"1";"2";"1";"1";"2014-10-07 10:00:20.030";"2014-10-07 10:17:24.451";"1";"0";"0";"112";"111";"module.training_block3.exec-2449.GoNoGo3";;;;;;;;;;;;;;;;;;;;;;;;;;;;;;;;;;;;;;;;;;;;;;;"1261";"2014-10-07 10:08:16.438";"NST_correctLoc";"28";"0";"FINISHED";"LEFT";"success";"384";"0";"2014-10-07 10:08:15.175";"3";;;;;;;;;;;;;;;;;;;;;;;;;;;;;;;;;
"nekem_nyolc";"1996";;"Windows 7";"Rachel's Experiment (D.T.)";"1.0";"2";"1";"1";"2";"1";"1";"2014-10-07 10:00:20.030";"2014-10-07 10:17:24.451";"1";"0";"0";"113";"112";"module.training_block3.exec-2449.GoNoGo3";;;;;;;;;;;;;;;;;;;;;;;;;;;;;;;;;;;;;;;;;;;;;;;"1261";"2014-10-07 10:08:18.997";"NST_correctLoc";"2";"1";"FINISHED";"RIGHT";"success";"498";"0";"2014-10-07 10:08:17.733";"1";;;;;;;;;;;;;;;;;;;;;;;;;;;;;;;;;
"nekem_nyolc";"1996";;"Windows 7";"Rachel's Experiment (D.T.)";"1.0";"2";"1";"1";"2";"1";"1";"2014-10-07 10:00:20.030";"2014-10-07 10:17:24.451";"1";"0";"0";"114";"113";"module.training_block3.exec-2449.GoNoGo3";;;;;;;;;;;;;;;;;;;;;;;;;;;;;;;;;;;;;;;;;;;;;;;"1261";"2014-10-07 10:08:21.539";"NST_correctLoc";"3";"1";"FINISHED";"RIGHT";"success";"627";"0";"2014-10-07 10:08:20.276";"1";;;;;;;;;;;;;;;;;;;;;;;;;;;;;;;;;
"nekem_nyolc";"1996";;"Windows 7";"Rachel's Experiment (D.T.)";"1.0";"2";"1";"1";"2";"1";"1";"2014-10-07 10:00:20.030";"2014-10-07 10:17:24.451";"1";"0";"0";"115";"114";"module.training_block3.exec-2449.GoNoGo3";;;;;;;;;;;;;;;;;;;;;;;;;;;;;;;;;;;;;;;;;;;;;;;"1261";"2014-10-07 10:08:24.082";"NST_correctLoc";"4";"1";"FINISHED";"RIGHT";"success";"660";"0";"2014-10-07 10:08:22.819";"1";;;;;;;;;;;;;;;;;;;;;;;;;;;;;;;;;
"nekem_nyolc";"1996";;"Windows 7";"Rachel's Experiment (D.T.)";"1.0";"2";"1";"1";"2";"1";"1";"2014-10-07 10:00:20.030";"2014-10-07 10:17:24.451";"1";"0";"0";"116";"115";"module.training_block3.exec-2449.GoNoGo3";;;;;;;;;;;;;;;;;;;;;;;;;;;;;;;;;;;;;;;;;;;;;;;"1262";"2014-10-07 10:08:26.609";"NST_correctLoc";"18";"0";"FINISHED";"LEFT";"success";"638";"0";"2014-10-07 10:08:25.346";"3";;;;;;;;;;;;;;;;;;;;;;;;;;;;;;;;;
"nekem_nyolc";"1996";;"Windows 7";"Rachel's Experiment (D.T.)";"1.0";"2";"1";"1";"2";"1";"1";"2014-10-07 10:00:20.030";"2014-10-07 10:17:24.451";"1";"0";"0";"117";"116";"module.training_block3.exec-2449.GoNoGo3";;;;;;;;;;;;;;;;;;;;;;;;;;;;;;;;;;;;;;;;;;;;;;;"1258";"2014-10-07 10:08:29.152";"NST_correctLoc";"1";"0";"FINISHED";"LEFT";"success";"482";"0";"2014-10-07 10:08:27.889";"1";;;;;;;;;;;;;;;;;;;;;;;;;;;;;;;;;
"nekem_nyolc";"1996";;"Windows 7";"Rachel's Experiment (D.T.)";"1.0";"2";"1";"1";"2";"1";"1";"2014-10-07 10:00:20.030";"2014-10-07 10:17:24.451";"1";"0";"0";"118";"117";"module.training_block3.exec-2449.GoNoGo3";;;;;;;;;;;;;;;;;;;;;;;;;;;;;;;;;;;;;;;;;;;;;;;"1261";"2014-10-07 10:08:31.679";"NST_correctLoc";"17";"1";"FINISHED";"RIGHT";"success";"543";"0";"2014-10-07 10:08:30.416";"2";;;;;;;;;;;;;;;;;;;;;;;;;;;;;;;;;
"nekem_nyolc";"1996";;"Windows 7";"Rachel's Experiment (D.T.)";"1.0";"2";"1";"1";"2";"1";"1";"2014-10-07 10:00:20.030";"2014-10-07 10:17:24.451";"1";"0";"0";"119";"118";"module.training_block3.exec-2449.GoNoGo3";;;;;;;;;;;;;;;;;;;;;;;;;;;;;;;;;;;;;;;;;;;;;;;"1261";"2014-10-07 10:08:34.222";"NST_correctLoc";"8";"0";"FINISHED";"LEFT";"success";"448";"0";"2014-10-07 10:08:32.959";"1";;;;;;;;;;;;;;;;;;;;;;;;;;;;;;;;;
"nekem_nyolc";"1996";;"Windows 7";"Rachel's Experiment (D.T.)";"1.0";"2";"1";"1";"2";"1";"1";"2014-10-07 10:00:20.030";"2014-10-07 10:17:24.451";"1";"0";"0";"120";"119";"module.training_block3.exec-2449.GoNoGo3";;;;;;;;;;;;;;;;;;;;;;;;;;;;;;;;;;;;;;;;;;;;;;;"1261";"2014-10-07 10:08:36.781";"NST_correctLoc";"35";"0";"FINISHED";"LEFT";"success";"362";"0";"2014-10-07 10:08:35.517";"3";;;;;;;;;;;;;;;;;;;;;;;;;;;;;;;;;
"nekem_nyolc";"1996";;"Windows 7";"Rachel's Experiment (D.T.)";"1.0";"2";"1";"1";"2";"1";"1";"2014-10-07 10:00:20.030";"2014-10-07 10:17:24.451";"1";"0";"0";"121";"120";"module.training_block3.exec-2449.GoNoGo3";;;;;;;;;;;;;;;;;;;;;;;;;;;;;;;;;;;;;;;;;;;;;;;"1261";"2014-10-07 10:08:39.308";"NST_correctLoc";"27";"0";"FINISHED";"LEFT";"success";"387";"0";"2014-10-07 10:08:38.044";"3";;;;;;;;;;;;;;;;;;;;;;;;;;;;;;;;;
"nekem_nyolc";"1996";;"Windows 7";"Rachel's Experiment (D.T.)";"1.0";"2";"1";"1";"2";"1";"1";"2014-10-07 10:00:20.030";"2014-10-07 10:17:24.451";"1";"0";"0";"122";"121";"module.training_block3.exec-2449.GoNoGo3";;;;;;;;;;;;;;;;;;;;;;;;;;;;;;;;;;;;;;;;;;;;;;;"1261";"2014-10-07 10:08:41.851";"NST_correctLoc";"21";"0";"FINISHED";"LEFT";"success";"412";"0";"2014-10-07 10:08:40.587";"3";;;;;;;;;;;;;;;;;;;;;;;;;;;;;;;;;
"nekem_nyolc";"1996";;"Windows 7";"Rachel's Experiment (D.T.)";"1.0";"2";"1";"1";"2";"1";"1";"2014-10-07 10:00:20.030";"2014-10-07 10:17:24.451";"1";"0";"0";"123";"122";"module.training_block3.exec-2449.GoNoGo3";;;;;;;;;;;;;;;;;;;;;;;;;;;;;;;;;;;;;;;;;;;;;;;"1261";"2014-10-07 10:08:44.378";"NST_correctLoc";"0";"0";"FINISHED";"LEFT";"success";"820";"0";"2014-10-07 10:08:43.114";"1";;;;;;;;;;;;;;;;;;;;;;;;;;;;;;;;;
"nekem_nyolc";"1996";;"Windows 7";"Rachel's Experiment (D.T.)";"1.0";"2";"1";"1";"2";"1";"1";"2014-10-07 10:00:20.030";"2014-10-07 10:17:24.451";"1";"0";"0";"124";"123";"module.training_block4.exec-2942.GoNoGo4";;;;;;;;;;;;;;;;;;;;;;;;;;;;;;;;;;;;;;;;;;;;;;;;;;;;;;;;;;;"1261";"2014-10-07 10:08:55.064";"NST_correctLoc";"16";"0";"FINISHED";"LEFT";"success";"502";"0";"2014-10-07 10:08:53.800";"2";;;;;;;;;;;;;;;;;;;;;
"nekem_nyolc";"1996";;"Windows 7";"Rachel's Experiment (D.T.)";"1.0";"2";"1";"1";"2";"1";"1";"2014-10-07 10:00:20.030";"2014-10-07 10:17:24.451";"1";"0";"0";"125";"124";"module.training_block4.exec-2942.GoNoGo4";;;;;;;;;;;;;;;;;;;;;;;;;;;;;;;;;;;;;;;;;;;;;;;;;;;;;;;;;;;"1261";"2014-10-07 10:08:57.607";"NST_correctLoc";"25";"0";"FINISHED";"LEFT";"success";"560";"0";"2014-10-07 10:08:56.343";"3";;;;;;;;;;;;;;;;;;;;;
"nekem_nyolc";"1996";;"Windows 7";"Rachel's Experiment (D.T.)";"1.0";"2";"1";"1";"2";"1";"1";"2014-10-07 10:00:20.030";"2014-10-07 10:17:24.451";"1";"0";"0";"126";"125";"module.training_block4.exec-2942.GoNoGo4";;;;;;;;;;;;;;;;;;;;;;;;;;;;;;;;;;;;;;;;;;;;;;;;;;;;;;;;;;;"1261";"2014-10-07 10:09:00.149";"NST_correctLoc";"4";"1";"FINISHED";"RIGHT";"success";"545";"0";"2014-10-07 10:08:58.886";"1";;;;;;;;;;;;;;;;;;;;;
"nekem_nyolc";"1996";;"Windows 7";"Rachel's Experiment (D.T.)";"1.0";"2";"1";"1";"2";"1";"1";"2014-10-07 10:00:20.030";"2014-10-07 10:17:24.451";"1";"0";"0";"127";"126";"module.training_block4.exec-2942.GoNoGo4";;;;;;;;;;;;;;;;;;;;;;;;;;;;;;;;;;;;;;;;;;;;;;;;;;;;;;;;;;;"1261";"2014-10-07 10:09:02.677";"NST_correctLoc";"21";"0";"FINISHED";"LEFT";"success";"441";"0";"2014-10-07 10:09:01.413";"3";;;;;;;;;;;;;;;;;;;;;
"nekem_nyolc";"1996";;"Windows 7";"Rachel's Experiment (D.T.)";"1.0";"2";"1";"1";"2";"1";"1";"2014-10-07 10:00:20.030";"2014-10-07 10:17:24.451";"1";"0";"0";"128";"127";"module.training_block4.exec-2942.GoNoGo4";;;;;;;;;;;;;;;;;;;;;;;;;;;;;;;;;;;;;;;;;;;;;;;;;;;;;;;;;;;"1261";"2014-10-07 10:09:05.204";"NST_correctLoc";"29";"0";"FINISHED";"LEFT";"success";"354";"0";"2014-10-07 10:09:03.940";"3";;;;;;;;;;;;;;;;;;;;;
"nekem_nyolc";"1996";;"Windows 7";"Rachel's Experiment (D.T.)";"1.0";"2";"1";"1";"2";"1";"1";"2014-10-07 10:00:20.030";"2014-10-07 10:17:24.451";"1";"0";"0";"129";"128";"module.training_block4.exec-2942.GoNoGo4";;;;;;;;;;;;;;;;;;;;;;;;;;;;;;;;;;;;;;;;;;;;;;;;;;;;;;;;;;;"1261";"2014-10-07 10:09:07.731";"NST_correctLoc";"1";"1";"FINISHED";"RIGHT";"success";"379";"0";"2014-10-07 10:09:06.467";"1";;;;;;;;;;;;;;;;;;;;;
"nekem_nyolc";"1996";;"Windows 7";"Rachel's Experiment (D.T.)";"1.0";"2";"1";"1";"2";"1";"1";"2014-10-07 10:00:20.030";"2014-10-07 10:17:24.451";"1";"0";"0";"130";"129";"module.training_block4.exec-2942.GoNoGo4";;;;;;;;;;;;;;;;;;;;;;;;;;;;;;;;;;;;;;;;;;;;;;;;;;;;;;;;;;;"1261";"2014-10-07 10:09:10.258";"NST_correctLoc";"0";"1";"FINISHED";"RIGHT";"success";"476";"0";"2014-10-07 10:09:08.995";"1";;;;;;;;;;;;;;;;;;;;;
"nekem_nyolc";"1996";;"Windows 7";"Rachel's Experiment (D.T.)";"1.0";"2";"1";"1";"2";"1";"1";"2014-10-07 10:00:20.030";"2014-10-07 10:17:24.451";"1";"0";"0";"131";"130";"module.training_block4.exec-2942.GoNoGo4";;;;;;;;;;;;;;;;;;;;;;;;;;;;;;;;;;;;;;;;;;;;;;;;;;;;;;;;;;;"1261";"2014-10-07 10:09:12.785";"NST_correctLoc";"9";"0";"FINISHED";"LEFT";"success";"453";"0";"2014-10-07 10:09:11.522";"2";;;;;;;;;;;;;;;;;;;;;
"nekem_nyolc";"1996";;"Windows 7";"Rachel's Experiment (D.T.)";"1.0";"2";"1";"1";"2";"1";"1";"2014-10-07 10:00:20.030";"2014-10-07 10:17:24.451";"1";"0";"0";"132";"131";"module.training_block4.exec-2942.GoNoGo4";;;;;;;;;;;;;;;;;;;;;;;;;;;;;;;;;;;;;;;;;;;;;;;;;;;;;;;;;;;"1261";"2014-10-07 10:09:15.313";"NST_correctLoc";"33";"1";"FINISHED";"RIGHT";"success";"365";"0";"2014-10-07 10:09:14.049";"3";;;;;;;;;;;;;;;;;;;;;
"nekem_nyolc";"1996";;"Windows 7";"Rachel's Experiment (D.T.)";"1.0";"2";"1";"1";"2";"1";"1";"2014-10-07 10:00:20.030";"2014-10-07 10:17:24.451";"1";"0";"0";"133";"132";"module.training_block4.exec-2942.GoNoGo4";;;;;;;;;;;;;;;;;;;;;;;;;;;;;;;;;;;;;;;;;;;;;;;;;;;;;;;;;;;"1261";"2014-10-07 10:09:17.840";"NST_correctLoc";"30";"1";"FINISHED";"RIGHT";"success";"446";"0";"2014-10-07 10:09:16.576";"3";;;;;;;;;;;;;;;;;;;;;
"nekem_nyolc";"1996";;"Windows 7";"Rachel's Experiment (D.T.)";"1.0";"2";"1";"1";"2";"1";"1";"2014-10-07 10:00:20.030";"2014-10-07 10:17:24.451";"1";"0";"0";"134";"133";"module.training_block4.exec-2942.GoNoGo4";;;;;;;;;;;;;;;;;;;;;;;;;;;;;;;;;;;;;;;;;;;;;;;;;;;;;;;;;;;"1261";"2014-10-07 10:09:20.383";"NST_correctLoc";"28";"1";"FINISHED";"RIGHT";"success";"399";"0";"2014-10-07 10:09:19.119";"3";;;;;;;;;;;;;;;;;;;;;
"nekem_nyolc";"1996";;"Windows 7";"Rachel's Experiment (D.T.)";"1.0";"2";"1";"1";"2";"1";"1";"2014-10-07 10:00:20.030";"2014-10-07 10:17:24.451";"1";"0";"0";"135";"134";"module.training_block4.exec-2942.GoNoGo4";;;;;;;;;;;;;;;;;;;;;;;;;;;;;;;;;;;;;;;;;;;;;;;;;;;;;;;;;;;"1261";"2014-10-07 10:09:22.910";"NST_correctLoc";"24";"1";"FINISHED";"RIGHT";"success";"408";"0";"2014-10-07 10:09:21.646";"3";;;;;;;;;;;;;;;;;;;;;
"nekem_nyolc";"1996";;"Windows 7";"Rachel's Experiment (D.T.)";"1.0";"2";"1";"1";"2";"1";"1";"2014-10-07 10:00:20.030";"2014-10-07 10:17:24.451";"1";"0";"0";"136";"135";"module.training_block4.exec-2942.GoNoGo4";;;;;;;;;;;;;;;;;;;;;;;;;;;;;;;;;;;;;;;;;;;;;;;;;;;;;;;;;;;"1261";"2014-10-07 10:09:25.437";"NST_correctLoc";"10";"1";"FINISHED";"RIGHT";"success";"345";"0";"2014-10-07 10:09:24.173";"2";;;;;;;;;;;;;;;;;;;;;
"nekem_nyolc";"1996";;"Windows 7";"Rachel's Experiment (D.T.)";"1.0";"2";"1";"1";"2";"1";"1";"2014-10-07 10:00:20.030";"2014-10-07 10:17:24.451";"1";"0";"0";"137";"136";"module.training_block4.exec-2942.GoNoGo4";;;;;;;;;;;;;;;;;;;;;;;;;;;;;;;;;;;;;;;;;;;;;;;;;;;;;;;;;;;"1261";"2014-10-07 10:09:27.964";"NST_correctLoc";"15";"1";"FINISHED";"RIGHT";"success";"386";"0";"2014-10-07 10:09:26.701";"2";;;;;;;;;;;;;;;;;;;;;
"nekem_nyolc";"1996";;"Windows 7";"Rachel's Experiment (D.T.)";"1.0";"2";"1";"1";"2";"1";"1";"2014-10-07 10:00:20.030";"2014-10-07 10:17:24.451";"1";"0";"0";"138";"137";"module.training_block4.exec-2942.GoNoGo4";;;;;;;;;;;;;;;;;;;;;;;;;;;;;;;;;;;;;;;;;;;;;;;;;;;;;;;;;;;"1261";"2014-10-07 10:09:30.491";"NST_correctLoc";"27";"1";"FINISHED";"RIGHT";"success";"347";"0";"2014-10-07 10:09:29.228";"3";;;;;;;;;;;;;;;;;;;;;
"nekem_nyolc";"1996";;"Windows 7";"Rachel's Experiment (D.T.)";"1.0";"2";"1";"1";"2";"1";"1";"2014-10-07 10:00:20.030";"2014-10-07 10:17:24.451";"1";"0";"0";"139";"138";"module.training_block4.exec-2942.GoNoGo4";;;;;;;;;;;;;;;;;;;;;;;;;;;;;;;;;;;;;;;;;;;;;;;;;;;;;;;;;;;"1261";"2014-10-07 10:09:33.019";"NST_correctLoc";"14";"1";"FINISHED";"RIGHT";"success";"427";"0";"2014-10-07 10:09:31.755";"2";;;;;;;;;;;;;;;;;;;;;
"nekem_nyolc";"1996";;"Windows 7";"Rachel's Experiment (D.T.)";"1.0";"2";"1";"1";"2";"1";"1";"2014-10-07 10:00:20.030";"2014-10-07 10:17:24.451";"1";"0";"0";"140";"139";"module.training_block4.exec-2942.GoNoGo4";;;;;;;;;;;;;;;;;;;;;;;;;;;;;;;;;;;;;;;;;;;;;;;;;;;;;;;;;;;"1262";"2014-10-07 10:09:35.546";"NST_correctLoc";"13";"0";"FINISHED";"LEFT";"success";"548";"0";"2014-10-07 10:09:34.282";"2";;;;;;;;;;;;;;;;;;;;;
"nekem_nyolc";"1996";;"Windows 7";"Rachel's Experiment (D.T.)";"1.0";"2";"1";"1";"2";"1";"1";"2014-10-07 10:00:20.030";"2014-10-07 10:17:24.451";"1";"0";"0";"141";"140";"module.training_block4.exec-2942.GoNoGo4";;;;;;;;;;;;;;;;;;;;;;;;;;;;;;;;;;;;;;;;;;;;;;;;;;;;;;;;;;;"1262";"2014-10-07 10:09:38.073";"NST_correctLoc";"32";"0";"FINISHED";"LEFT";"success";"789";"0";"2014-10-07 10:09:36.809";"3";;;;;;;;;;;;;;;;;;;;;
"nekem_nyolc";"1996";;"Windows 7";"Rachel's Experiment (D.T.)";"1.0";"2";"1";"1";"2";"1";"1";"2014-10-07 10:00:20.030";"2014-10-07 10:17:24.451";"1";"0";"0";"142";"141";"module.training_block4.exec-2942.GoNoGo4";;;;;;;;;;;;;;;;;;;;;;;;;;;;;;;;;;;;;;;;;;;;;;;;;;;;;;;;;;;"1261";"2014-10-07 10:09:40.616";"NST_correctLoc";"8";"0";"FINISHED";"LEFT";"success";"414";"0";"2014-10-07 10:09:39.352";"1";;;;;;;;;;;;;;;;;;;;;
"nekem_nyolc";"1996";;"Windows 7";"Rachel's Experiment (D.T.)";"1.0";"2";"1";"1";"2";"1";"1";"2014-10-07 10:00:20.030";"2014-10-07 10:17:24.451";"1";"0";"0";"143";"142";"module.training_block4.exec-2942.GoNoGo4";;;;;;;;;;;;;;;;;;;;;;;;;;;;;;;;;;;;;;;;;;;;;;;;;;;;;;;;;;;"1261";"2014-10-07 10:09:43.143";"NST_correctLoc";"3";"1";"FINISHED";"RIGHT";"success";"511";"0";"2014-10-07 10:09:41.879";"1";;;;;;;;;;;;;;;;;;;;;
"nekem_nyolc";"1996";;"Windows 7";"Rachel's Experiment (D.T.)";"1.0";"2";"1";"1";"2";"1";"1";"2014-10-07 10:00:20.030";"2014-10-07 10:17:24.451";"1";"0";"0";"144";"143";"module.training_block4.exec-2942.GoNoGo4";;;;;;;;;;;;;;;;;;;;;;;;;;;;;;;;;;;;;;;;;;;;;;;;;;;;;;;;;;;"1261";"2014-10-07 10:09:45.670";"NST_correctLoc";"19";"0";"FINISHED";"LEFT";"success";"351";"0";"2014-10-07 10:09:44.407";"3";;;;;;;;;;;;;;;;;;;;;
"nekem_nyolc";"1996";;"Windows 7";"Rachel's Experiment (D.T.)";"1.0";"2";"1";"1";"2";"1";"1";"2014-10-07 10:00:20.030";"2014-10-07 10:17:24.451";"1";"0";"0";"145";"144";"module.training_block4.exec-2942.GoNoGo4";;;;;;;;;;;;;;;;;;;;;;;;;;;;;;;;;;;;;;;;;;;;;;;;;;;;;;;;;;;"1261";"2014-10-07 10:09:48.213";"NST_correctLoc";"20";"0";"FINISHED";"LEFT";"success";"905";"0";"2014-10-07 10:09:46.949";"3";;;;;;;;;;;;;;;;;;;;;
"nekem_nyolc";"1996";;"Windows 7";"Rachel's Experiment (D.T.)";"1.0";"2";"1";"1";"2";"1";"1";"2014-10-07 10:00:20.030";"2014-10-07 10:17:24.451";"1";"0";"0";"146";"145";"module.training_block4.exec-2942.GoNoGo4";;;;;;;;;;;;;;;;;;;;;;;;;;;;;;;;;;;;;;;;;;;;;;;;;;;;;;;;;;;"1261";"2014-10-07 10:09:50.740";"NST_miss";"2";"0";"FINISHED";"NONE";"failure";"0";"0";"2014-10-07 10:09:49.477";"1";;;;;;;;;;;;;;;;;;;;;
"nekem_nyolc";"1996";;"Windows 7";"Rachel's Experiment (D.T.)";"1.0";"2";"1";"1";"2";"1";"1";"2014-10-07 10:00:20.030";"2014-10-07 10:17:24.451";"1";"0";"0";"147";"146";"module.training_block4.exec-2942.GoNoGo4";;;;;;;;;;;;;;;;;;;;;;;;;;;;;;;;;;;;;;;;;;;;;;;;;;;;;;;;;;;"1262";"2014-10-07 10:09:53.283";"NST_correctLoc";"17";"0";"FINISHED";"LEFT";"success";"411";"0";"2014-10-07 10:09:52.019";"2";;;;;;;;;;;;;;;;;;;;;
"nekem_nyolc";"1996";;"Windows 7";"Rachel's Experiment (D.T.)";"1.0";"2";"1";"1";"2";"1";"1";"2014-10-07 10:00:20.030";"2014-10-07 10:17:24.451";"1";"0";"0";"148";"147";"module.training_block4.exec-2942.GoNoGo4";;;;;;;;;;;;;;;;;;;;;;;;;;;;;;;;;;;;;;;;;;;;;;;;;;;;;;;;;;;"1261";"2014-10-07 10:09:55.810";"NST_correctLoc";"7";"0";"FINISHED";"LEFT";"success";"499";"0";"2014-10-07 10:09:54.547";"1";;;;;;;;;;;;;;;;;;;;;
"nekem_nyolc";"1996";;"Windows 7";"Rachel's Experiment (D.T.)";"1.0";"2";"1";"1";"2";"1";"1";"2014-10-07 10:00:20.030";"2014-10-07 10:17:24.451";"1";"0";"0";"149";"148";"module.training_block4.exec-2942.GoNoGo4";;;;;;;;;;;;;;;;;;;;;;;;;;;;;;;;;;;;;;;;;;;;;;;;;;;;;;;;;;;"1262";"2014-10-07 10:09:58.337";"NST_correctLoc";"11";"0";"FINISHED";"LEFT";"success";"460";"0";"2014-10-07 10:09:57.074";"2";;;;;;;;;;;;;;;;;;;;;
"nekem_nyolc";"1996";;"Windows 7";"Rachel's Experiment (D.T.)";"1.0";"2";"1";"1";"2";"1";"1";"2014-10-07 10:00:20.030";"2014-10-07 10:17:24.451";"1";"0";"0";"150";"149";"module.training_block4.exec-2942.GoNoGo4";;;;;;;;;;;;;;;;;;;;;;;;;;;;;;;;;;;;;;;;;;;;;;;;;;;;;;;;;;;"1261";"2014-10-07 10:10:00.896";"NST_correctLoc";"34";"1";"FINISHED";"RIGHT";"success";"558";"0";"2014-10-07 10:09:59.632";"3";;;;;;;;;;;;;;;;;;;;;
"nekem_nyolc";"1996";;"Windows 7";"Rachel's Experiment (D.T.)";"1.0";"2";"1";"1";"2";"1";"1";"2014-10-07 10:00:20.030";"2014-10-07 10:17:24.451";"1";"0";"0";"151";"150";"module.training_block4.exec-2942.GoNoGo4";;;;;;;;;;;;;;;;;;;;;;;;;;;;;;;;;;;;;;;;;;;;;;;;;;;;;;;;;;;"1262";"2014-10-07 10:10:03.423";"NST_correctLoc";"31";"0";"FINISHED";"LEFT";"success";"1111";"0";"2014-10-07 10:10:02.159";"3";;;;;;;;;;;;;;;;;;;;;
"nekem_nyolc";"1996";;"Windows 7";"Rachel's Experiment (D.T.)";"1.0";"2";"1";"1";"2";"1";"1";"2014-10-07 10:00:20.030";"2014-10-07 10:17:24.451";"1";"0";"0";"152";"151";"module.training_block4.exec-2942.GoNoGo4";;;;;;;;;;;;;;;;;;;;;;;;;;;;;;;;;;;;;;;;;;;;;;;;;;;;;;;;;;;"1261";"2014-10-07 10:10:05.966";"NST_correctLoc";"26";"0";"FINISHED";"LEFT";"success";"488";"0";"2014-10-07 10:10:04.702";"3";;;;;;;;;;;;;;;;;;;;;
"nekem_nyolc";"1996";;"Windows 7";"Rachel's Experiment (D.T.)";"1.0";"2";"1";"1";"2";"1";"1";"2014-10-07 10:00:20.030";"2014-10-07 10:17:24.451";"1";"0";"0";"153";"152";"module.training_block4.exec-2942.GoNoGo4";;;;;;;;;;;;;;;;;;;;;;;;;;;;;;;;;;;;;;;;;;;;;;;;;;;;;;;;;;;"1262";"2014-10-07 10:10:08.493";"NST_correctLoc";"18";"1";"FINISHED";"RIGHT";"success";"329";"0";"2014-10-07 10:10:07.229";"3";;;;;;;;;;;;;;;;;;;;;
"nekem_nyolc";"1996";;"Windows 7";"Rachel's Experiment (D.T.)";"1.0";"2";"1";"1";"2";"1";"1";"2014-10-07 10:00:20.030";"2014-10-07 10:17:24.451";"1";"0";"0";"154";"153";"module.training_block4.exec-2942.GoNoGo4";;;;;;;;;;;;;;;;;;;;;;;;;;;;;;;;;;;;;;;;;;;;;;;;;;;;;;;;;;;"1261";"2014-10-07 10:10:11.020";"NST_correctLoc";"35";"0";"FINISHED";"LEFT";"success";"625";"0";"2014-10-07 10:10:09.757";"3";;;;;;;;;;;;;;;;;;;;;
"nekem_nyolc";"1996";;"Windows 7";"Rachel's Experiment (D.T.)";"1.0";"2";"1";"1";"2";"1";"1";"2014-10-07 10:00:20.030";"2014-10-07 10:17:24.451";"1";"0";"0";"155";"154";"module.training_block4.exec-2942.GoNoGo4";;;;;;;;;;;;;;;;;;;;;;;;;;;;;;;;;;;;;;;;;;;;;;;;;;;;;;;;;;;"1262";"2014-10-07 10:10:13.547";"NST_correctLoc";"22";"0";"FINISHED";"LEFT";"success";"378";"0";"2014-10-07 10:10:12.284";"3";;;;;;;;;;;;;;;;;;;;;
"nekem_nyolc";"1996";;"Windows 7";"Rachel's Experiment (D.T.)";"1.0";"2";"1";"1";"2";"1";"1";"2014-10-07 10:00:20.030";"2014-10-07 10:17:24.451";"1";"0";"0";"156";"155";"module.training_block4.exec-2942.GoNoGo4";;;;;;;;;;;;;;;;;;;;;;;;;;;;;;;;;;;;;;;;;;;;;;;;;;;;;;;;;;;"1261";"2014-10-07 10:10:16.075";"NST_correctLoc";"6";"1";"FINISHED";"RIGHT";"success";"323";"0";"2014-10-07 10:10:14.811";"1";;;;;;;;;;;;;;;;;;;;;
"nekem_nyolc";"1996";;"Windows 7";"Rachel's Experiment (D.T.)";"1.0";"2";"1";"1";"2";"1";"1";"2014-10-07 10:00:20.030";"2014-10-07 10:17:24.451";"1";"0";"0";"157";"156";"module.training_block4.exec-2942.GoNoGo4";;;;;;;;;;;;;;;;;;;;;;;;;;;;;;;;;;;;;;;;;;;;;;;;;;;;;;;;;;;"1261";"2014-10-07 10:10:18.602";"NST_correctLoc";"12";"0";"FINISHED";"LEFT";"success";"284";"0";"2014-10-07 10:10:17.338";"2";;;;;;;;;;;;;;;;;;;;;
"nekem_nyolc";"1996";;"Windows 7";"Rachel's Experiment (D.T.)";"1.0";"2";"1";"1";"2";"1";"1";"2014-10-07 10:00:20.030";"2014-10-07 10:17:24.451";"1";"0";"0";"158";"157";"module.training_block4.exec-2942.GoNoGo4";;;;;;;;;;;;;;;;;;;;;;;;;;;;;;;;;;;;;;;;;;;;;;;;;;;;;;;;;;;"1261";"2014-10-07 10:10:21.129";"NST_correctLoc";"23";"0";"FINISHED";"LEFT";"success";"372";"0";"2014-10-07 10:10:19.865";"3";;;;;;;;;;;;;;;;;;;;;
"nekem_nyolc";"1996";;"Windows 7";"Rachel's Experiment (D.T.)";"1.0";"2";"1";"1";"2";"1";"1";"2014-10-07 10:00:20.030";"2014-10-07 10:17:24.451";"1";"0";"0";"159";"158";"module.training_block4.exec-2942.GoNoGo4";;;;;;;;;;;;;;;;;;;;;;;;;;;;;;;;;;;;;;;;;;;;;;;;;;;;;;;;;;;"1261";"2014-10-07 10:10:23.656";"NST_correctLoc";"5";"1";"FINISHED";"RIGHT";"success";"301";"0";"2014-10-07 10:10:22.393";"1";;;;;;;;;;;;;;;;;;;;;
"nekem_nyolc";"1996";;"Windows 7";"Rachel's Experiment (D.T.)";"1.0";"2";"1";"1";"2";"1";"1";"2014-10-07 10:00:20.030";"2014-10-07 10:17:24.451";"1";"0";"0";"160";"159";"module.devaluation_practice.exec-2719.devalPractice";;;;;;;;;;;;"19328";"2014-10-07 10:11:42.062";"0";"8";"4";"7";"8256";"3447";"4574";"2014-10-07 10:11:22.733";;;;;;;;;;;;;;;;;;;;;;;;;;;;;;;;;;;;;;;;;;;;;;;;;;;;;;;;;;;;;;;;;;;;;;
"nekem_nyolc";"1996";;"Windows 7";"Rachel's Experiment (D.T.)";"1.0";"2";"1";"1";"2";"1";"1";"2014-10-07 10:00:20.030";"2014-10-07 10:17:24.451";"1";"0";"0";"161";"160";"module.devaluation_practice.exec-2719.devalPractice";;;;;;;;;;;;"11260";"2014-10-07 10:11:53.356";"1";"4";"3";"4";"3010";"2699";"2511";"2014-10-07 10:11:42.093";;;;;;;;;;;;;;;;;;;;;;;;;;;;;;;;;;;;;;;;;;;;;;;;;;;;;;;;;;;;;;;;;;;;;;
"nekem_nyolc";"1996";;"Windows 7";"Rachel's Experiment (D.T.)";"1.0";"2";"1";"1";"2";"1";"1";"2014-10-07 10:00:20.030";"2014-10-07 10:17:24.451";"1";"0";"0";"162";"161";"module.devaluation_practice.exec-2719.devalPractice";;;;;;;;;;;;"10613";"2014-10-07 10:12:03.980";"2";"5";"4";"6";"2380";"1646";"3560";"2014-10-07 10:11:53.372";;;;;;;;;;;;;;;;;;;;;;;;;;;;;;;;;;;;;;;;;;;;;;;;;;;;;;;;;;;;;;;;;;;;;;
"nekem_nyolc";"1996";;"Windows 7";"Rachel's Experiment (D.T.)";"1.0";"2";"1";"1";"2";"1";"1";"2014-10-07 10:00:20.030";"2014-10-07 10:17:24.451";"1";"0";"0";"163";"162";"module.devaluation_practice.exec-2719.devalPractice";;;;;;;;;;;;"11996";"2014-10-07 10:12:15.992";"3";"6";"6";"6";"6109";"761";"2104";"2014-10-07 10:12:03.995";;;;;;;;;;;;;;;;;;;;;;;;;;;;;;;;;;;;;;;;;;;;;;;;;;;;;;;;;;;;;;;;;;;;;;
"nekem_nyolc";"1996";;"Windows 7";"Rachel's Experiment (D.T.)";"1.0";"2";"1";"1";"2";"1";"1";"2014-10-07 10:00:20.030";"2014-10-07 10:17:24.451";"1";"0";"0";"164";"163";"module.devaluation_block1.exec-4599.deval1";"20943";"2014-10-07 10:12:47.504";"12";"7";"4";"6";"3661";"5347";"8889";"2014-10-07 10:12:26.569";"2";;;;;;;;;;;;;;;;;;;;;;;;;;;;;;;;;;;;;;;;;;;;;;;;;;;;;;;;;;;;;;;;;;;;;;;;;;;;;;;;
"nekem_nyolc";"1996";;"Windows 7";"Rachel's Experiment (D.T.)";"1.0";"2";"1";"1";"2";"1";"1";"2014-10-07 10:00:20.030";"2014-10-07 10:17:24.451";"1";"0";"0";"165";"164";"module.devaluation_block1.exec-4599.deval1";"10477";"2014-10-07 10:12:58.003";"1";"4";"4";"6";"3768";"882";"2797";"2014-10-07 10:12:47.535";"1";;;;;;;;;;;;;;;;;;;;;;;;;;;;;;;;;;;;;;;;;;;;;;;;;;;;;;;;;;;;;;;;;;;;;;;;;;;;;;;;
"nekem_nyolc";"1996";;"Windows 7";"Rachel's Experiment (D.T.)";"1.0";"2";"1";"1";"2";"1";"1";"2014-10-07 10:00:20.030";"2014-10-07 10:17:24.451";"1";"0";"0";"166";"165";"module.devaluation_block1.exec-4599.deval1";"12899";"2014-10-07 10:13:10.919";"23";"8";"9";"8";"2557";"1338";"5964";"2014-10-07 10:12:58.034";"3";;;;;;;;;;;;;;;;;;;;;;;;;;;;;;;;;;;;;;;;;;;;;;;;;;;;;;;;;;;;;;;;;;;;;;;;;;;;;;;;
"nekem_nyolc";"1996";;"Windows 7";"Rachel's Experiment (D.T.)";"1.0";"2";"1";"1";"2";"1";"1";"2014-10-07 10:00:20.030";"2014-10-07 10:17:24.451";"1";"0";"0";"167";"166";"module.devaluation_block1.exec-4599.deval1";"12381";"2014-10-07 10:13:23.321";"8";"6";"6";"7";"7560";"1086";"703";"2014-10-07 10:13:10.951";"1";;;;;;;;;;;;;;;;;;;;;;;;;;;;;;;;;;;;;;;;;;;;;;;;;;;;;;;;;;;;;;;;;;;;;;;;;;;;;;;;
"nekem_nyolc";"1996";;"Windows 7";"Rachel's Experiment (D.T.)";"1.0";"2";"1";"1";"2";"1";"1";"2014-10-07 10:00:20.030";"2014-10-07 10:17:24.451";"1";"0";"0";"168";"167";"module.devaluation_block1.exec-4599.deval1";"11565";"2014-10-07 10:13:34.912";"9";"5";"3";"6";"3598";"3170";"1783";"2014-10-07 10:13:23.337";"2";;;;;;;;;;;;;;;;;;;;;;;;;;;;;;;;;;;;;;;;;;;;;;;;;;;;;;;;;;;;;;;;;;;;;;;;;;;;;;;;
"nekem_nyolc";"1996";;"Windows 7";"Rachel's Experiment (D.T.)";"1.0";"2";"1";"1";"2";"1";"1";"2014-10-07 10:00:20.030";"2014-10-07 10:17:24.451";"1";"0";"0";"169";"168";"module.devaluation_block1.exec-4599.deval1";"7867";"2014-10-07 10:13:42.806";"18";"7";"8";"7";"1607";"1277";"1957";"2014-10-07 10:13:34.928";"3";;;;;;;;;;;;;;;;;;;;;;;;;;;;;;;;;;;;;;;;;;;;;;;;;;;;;;;;;;;;;;;;;;;;;;;;;;;;;;;;
"nekem_nyolc";"1996";;"Windows 7";"Rachel's Experiment (D.T.)";"1.0";"2";"1";"1";"2";"1";"1";"2014-10-07 10:00:20.030";"2014-10-07 10:17:24.451";"1";"0";"0";"170";"169";"module.devaluation_block1.exec-4599.deval1";"14891";"2014-10-07 10:13:57.704";"22";"8";"7";"7";"2529";"2164";"7167";"2014-10-07 10:13:42.821";"3";;;;;;;;;;;;;;;;;;;;;;;;;;;;;;;;;;;;;;;;;;;;;;;;;;;;;;;;;;;;;;;;;;;;;;;;;;;;;;;;
"nekem_nyolc";"1996";;"Windows 7";"Rachel's Experiment (D.T.)";"1.0";"2";"1";"1";"2";"1";"1";"2014-10-07 10:00:20.030";"2014-10-07 10:17:24.451";"1";"0";"0";"171";"170";"module.devaluation_block1.exec-4599.deval1";"11052";"2014-10-07 10:14:08.780";"21";"8";"7";"8";"3711";"1536";"2772";"2014-10-07 10:13:57.735";"3";;;;;;;;;;;;;;;;;;;;;;;;;;;;;;;;;;;;;;;;;;;;;;;;;;;;;;;;;;;;;;;;;;;;;;;;;;;;;;;;
"nekem_nyolc";"1996";;"Windows 7";"Rachel's Experiment (D.T.)";"1.0";"2";"1";"1";"2";"1";"1";"2014-10-07 10:00:20.030";"2014-10-07 10:17:24.451";"1";"0";"0";"172";"171";"module.devaluation_block1.exec-4599.deval1";"10299";"2014-10-07 10:14:19.107";"20";"5";"6";"7";"3099";"1794";"2391";"2014-10-07 10:14:08.795";"3";;;;;;;;;;;;;;;;;;;;;;;;;;;;;;;;;;;;;;;;;;;;;;;;;;;;;;;;;;;;;;;;;;;;;;;;;;;;;;;;
"nekem_nyolc";"1996";;"Windows 7";"Rachel's Experiment (D.T.)";"1.0";"2";"1";"1";"2";"1";"1";"2014-10-07 10:00:20.030";"2014-10-07 10:17:24.451";"1";"0";"0";"173";"172";"module.devaluation_block1.exec-4599.deval1";"13701";"2014-10-07 10:14:32.819";"2";"6";"3";"6";"3475";"787";"6394";"2014-10-07 10:14:19.123";"1";;;;;;;;;;;;;;;;;;;;;;;;;;;;;;;;;;;;;;;;;;;;;;;;;;;;;;;;;;;;;;;;;;;;;;;;;;;;;;;;
"nekem_nyolc";"1996";;"Windows 7";"Rachel's Experiment (D.T.)";"1.0";"2";"1";"1";"2";"1";"1";"2014-10-07 10:00:20.030";"2014-10-07 10:17:24.451";"1";"0";"0";"174";"173";"module.devaluation_block1.exec-4599.deval1";"9767";"2014-10-07 10:14:42.741";"25";"3";"2";"6";"3334";"998";"2387";"2014-10-07 10:14:32.975";"3";;;;;;;;;;;;;;;;;;;;;;;;;;;;;;;;;;;;;;;;;;;;;;;;;;;;;;;;;;;;;;;;;;;;;;;;;;;;;;;;
"nekem_nyolc";"1996";;"Windows 7";"Rachel's Experiment (D.T.)";"1.0";"2";"1";"1";"2";"1";"1";"2014-10-07 10:00:20.030";"2014-10-07 10:17:24.451";"1";"0";"0";"175";"174";"module.devaluation_block1.exec-4599.deval1";"10861";"2014-10-07 10:14:53.614";"17";"4";"2";"4";"4857";"1479";"1507";"2014-10-07 10:14:42.757";"2";;;;;;;;;;;;;;;;;;;;;;;;;;;;;;;;;;;;;;;;;;;;;;;;;;;;;;;;;;;;;;;;;;;;;;;;;;;;;;;;
"nekem_nyolc";"1996";;"Windows 7";"Rachel's Experiment (D.T.)";"1.0";"2";"1";"1";"2";"1";"1";"2014-10-07 10:00:20.030";"2014-10-07 10:17:24.451";"1";"0";"0";"176";"175";"module.devaluation_block1.exec-4599.deval1";"13068";"2014-10-07 10:15:06.703";"15";"6";"4";"6";"7584";"511";"1936";"2014-10-07 10:14:53.645";"2";;;;;;;;;;;;;;;;;;;;;;;;;;;;;;;;;;;;;;;;;;;;;;;;;;;;;;;;;;;;;;;;;;;;;;;;;;;;;;;;
"nekem_nyolc";"1996";;"Windows 7";"Rachel's Experiment (D.T.)";"1.0";"2";"1";"1";"2";"1";"1";"2014-10-07 10:00:20.030";"2014-10-07 10:17:24.451";"1";"0";"0";"177";"176";"module.devaluation_block1.exec-4599.deval1";"14021";"2014-10-07 10:15:20.743";"19";"9";"8";"9";"1936";"6610";"2431";"2014-10-07 10:15:06.734";"3";;;;;;;;;;;;;;;;;;;;;;;;;;;;;;;;;;;;;;;;;;;;;;;;;;;;;;;;;;;;;;;;;;;;;;;;;;;;;;;;
"nekem_nyolc";"1996";;"Windows 7";"Rachel's Experiment (D.T.)";"1.0";"2";"1";"1";"2";"1";"1";"2014-10-07 10:00:20.030";"2014-10-07 10:17:24.451";"1";"0";"0";"178";"177";"module.devaluation_block1.exec-4599.deval1";"6821";"2014-10-07 10:15:27.591";"6";"7";"5";"6";"1760";"815";"1202";"2014-10-07 10:15:20.774";"1";;;;;;;;;;;;;;;;;;;;;;;;;;;;;;;;;;;;;;;;;;;;;;;;;;;;;;;;;;;;;;;;;;;;;;;;;;;;;;;;
"nekem_nyolc";"1996";;"Windows 7";"Rachel's Experiment (D.T.)";"1.0";"2";"1";"1";"2";"1";"1";"2014-10-07 10:00:20.030";"2014-10-07 10:17:24.451";"1";"0";"0";"179";"178";"module.devaluation_block1.exec-4599.deval1";"9901";"2014-10-07 10:15:37.513";"13";"6";"4";"7";"2151";"3231";"1492";"2014-10-07 10:15:27.607";"2";;;;;;;;;;;;;;;;;;;;;;;;;;;;;;;;;;;;;;;;;;;;;;;;;;;;;;;;;;;;;;;;;;;;;;;;;;;;;;;;
"nekem_nyolc";"1996";;"Windows 7";"Rachel's Experiment (D.T.)";"1.0";"2";"1";"1";"2";"1";"1";"2014-10-07 10:00:20.030";"2014-10-07 10:17:24.451";"1";"0";"0";"180";"179";"module.devaluation_block1.exec-4599.deval1";"13552";"2014-10-07 10:15:51.085";"14";"6";"5";"6";"2318";"5060";"3150";"2014-10-07 10:15:37.528";"2";;;;;;;;;;;;;;;;;;;;;;;;;;;;;;;;;;;;;;;;;;;;;;;;;;;;;;;;;;;;;;;;;;;;;;;;;;;;;;;;
"nekem_nyolc";"1996";;"Windows 7";"Rachel's Experiment (D.T.)";"1.0";"2";"1";"1";"2";"1";"1";"2014-10-07 10:00:20.030";"2014-10-07 10:17:24.451";"1";"0";"0";"181";"180";"module.devaluation_block1.exec-4599.deval1";"12356";"2014-10-07 10:16:03.455";"5";"8";"7";"7";"1073";"6812";"1442";"2014-10-07 10:15:51.100";"1";;;;;;;;;;;;;;;;;;;;;;;;;;;;;;;;;;;;;;;;;;;;;;;;;;;;;;;;;;;;;;;;;;;;;;;;;;;;;;;;
"nekem_nyolc";"1996";;"Windows 7";"Rachel's Experiment (D.T.)";"1.0";"2";"1";"1";"2";"1";"1";"2014-10-07 10:00:20.030";"2014-10-07 10:17:24.451";"1";"0";"0";"182";"181";"module.devaluation_block1.exec-4599.deval1";"9560";"2014-10-07 10:16:13.049";"26";"9";"9";"9";"2311";"2138";"2079";"2014-10-07 10:16:03.487";"3";;;;;;;;;;;;;;;;;;;;;;;;;;;;;;;;;;;;;;;;;;;;;;;;;;;;;;;;;;;;;;;;;;;;;;;;;;;;;;;;
"nekem_nyolc";"1996";;"Windows 7";"Rachel's Experiment (D.T.)";"1.0";"2";"1";"1";"2";"1";"1";"2014-10-07 10:00:20.030";"2014-10-07 10:17:24.451";"1";"0";"0";"183";"182";"module.devaluation_block1.exec-4599.deval1";"6214";"2014-10-07 10:16:19.289";"24";"7";"8";"8";"949";"773";"1451";"2014-10-07 10:16:13.081";"3";;;;;;;;;;;;;;;;;;;;;;;;;;;;;;;;;;;;;;;;;;;;;;;;;;;;;;;;;;;;;;;;;;;;;;;;;;;;;;;;
"nekem_nyolc";"1996";;"Windows 7";"Rachel's Experiment (D.T.)";"1.0";"2";"1";"1";"2";"1";"1";"2014-10-07 10:00:20.030";"2014-10-07 10:17:24.451";"1";"0";"0";"184";"183";"module.devaluation_block1.exec-4599.deval1";"5246";"2014-10-07 10:16:24.562";"10";"7";"7";"7";"605";"632";"993";"2014-10-07 10:16:19.321";"2";;;;;;;;;;;;;;;;;;;;;;;;;;;;;;;;;;;;;;;;;;;;;;;;;;;;;;;;;;;;;;;;;;;;;;;;;;;;;;;;
"nekem_nyolc";"1996";;"Windows 7";"Rachel's Experiment (D.T.)";"1.0";"2";"1";"1";"2";"1";"1";"2014-10-07 10:00:20.030";"2014-10-07 10:17:24.451";"1";"0";"0";"185";"184";"module.devaluation_block1.exec-4599.deval1";"11324";"2014-10-07 10:16:35.903";"11";"6";"6";"7";"6091";"1086";"1125";"2014-10-07 10:16:24.578";"2";;;;;;;;;;;;;;;;;;;;;;;;;;;;;;;;;;;;;;;;;;;;;;;;;;;;;;;;;;;;;;;;;;;;;;;;;;;;;;;;
"nekem_nyolc";"1996";;"Windows 7";"Rachel's Experiment (D.T.)";"1.0";"2";"1";"1";"2";"1";"1";"2014-10-07 10:00:20.030";"2014-10-07 10:17:24.451";"1";"0";"0";"186";"185";"module.devaluation_block1.exec-4599.deval1";"12933";"2014-10-07 10:16:48.867";"16";"6";"4";"6";"4511";"904";"4487";"2014-10-07 10:16:35.935";"2";;;;;;;;;;;;;;;;;;;;;;;;;;;;;;;;;;;;;;;;;;;;;;;;;;;;;;;;;;;;;;;;;;;;;;;;;;;;;;;;
"nekem_nyolc";"1996";;"Windows 7";"Rachel's Experiment (D.T.)";"1.0";"2";"1";"1";"2";"1";"1";"2014-10-07 10:00:20.030";"2014-10-07 10:17:24.451";"1";"0";"0";"187";"186";"module.devaluation_block1.exec-4599.deval1";"7452";"2014-10-07 10:16:56.355";"4";"8";"7";"8";"973";"1512";"1945";"2014-10-07 10:16:48.898";"1";;;;;;;;;;;;;;;;;;;;;;;;;;;;;;;;;;;;;;;;;;;;;;;;;;;;;;;;;;;;;;;;;;;;;;;;;;;;;;;;
"nekem_nyolc";"1996";;"Windows 7";"Rachel's Experiment (D.T.)";"1.0";"2";"1";"1";"2";"1";"1";"2014-10-07 10:00:20.030";"2014-10-07 10:17:24.451";"1";"0";"0";"188";"187";"module.devaluation_block1.exec-4599.deval1";"6028";"2014-10-07 10:17:02.392";"7";"6";"6";"7";"915";"1335";"751";"2014-10-07 10:16:56.371";"1";;;;;;;;;;;;;;;;;;;;;;;;;;;;;;;;;;;;;;;;;;;;;;;;;;;;;;;;;;;;;;;;;;;;;;;;;;;;;;;;
"nekem_nyolc";"1996";;"Windows 7";"Rachel's Experiment (D.T.)";"1.0";"2";"1";"1";"2";"1";"1";"2014-10-07 10:00:20.030";"2014-10-07 10:17:24.451";"1";"0";"0";"189";"188";"module.devaluation_block1.exec-4599.deval1";"8478";"2014-10-07 10:17:10.894";"3";"7";"6";"7";"1229";"1017";"3210";"2014-10-07 10:17:02.408";"1";;;;;;;;;;;;;;;;;;;;;;;;;;;;;;;;;;;;;;;;;;;;;;;;;;;;;;;;;;;;;;;;;;;;;;;;;;;;;;;;
"nekem_nyolc";"1996";;"Windows 7";"Rachel's Experiment (D.T.)";"1.0";"2";"1";"1";"2";"1";"1";"2014-10-07 10:00:20.030";"2014-10-07 10:17:24.451";"1";"0";"0";"190";"189";"module.devaluation_block1.exec-4599.deval1";"10497";"2014-10-07 10:17:21.424";"0";"4";"2";"6";"3536";"1109";"2831";"2014-10-07 10:17:10.925";"1";;;;;;;;;;;;;;;;;;;;;;;;;;;;;;;;;;;;;;;;;;;;;;;;;;;;;;;;;;;;;;;;;;;;;;;;;;;;;;;;
