"user.name";"user.yearOfBirth";"user.sex";"user.osName";"module.name";"module.version";"module.online.subject.code";"module.online.study.id";"module.online.module.nr";"module.online.group.nr";"session.id";"session.index";"session.startTime";"session.endTime";"session.completed";"session.node-7125.conditionType";"session.node-7356.DevalQorder";"trial.id";"trial.index";"trial.name";"trial.deval1.durationTime";"trial.deval1.endTime";"trial.deval1.icon";"trial.deval1.Resp_Attractive";"trial.deval1.Resp_Eat";"trial.deval1.Resp_Taste";"trial.deval1.RT_Attractive";"trial.deval1.RT_Eat";"trial.deval1.RT_Taste";"trial.deval1.startTime";"trial.deval1.stimulus type";"trial.devalPractice.durationTime";"trial.devalPractice.endTime";"trial.devalPractice.icon";"trial.devalPractice.Resp_Attractive";"trial.devalPractice.Resp_Eat";"trial.devalPractice.Resp_Taste";"trial.devalPractice.RT_Attractive";"trial.devalPractice.RT_Eat";"trial.devalPractice.RT_Taste";"trial.devalPractice.startTime";"trial.devalPractice.stimulus type";"trial.GoNoGo1.durationTime";"trial.GoNoGo1.endTime";"trial.GoNoGo1.Error Type";"trial.GoNoGo1.icon";"trial.GoNoGo1.location";"trial.GoNoGo1.outcome";"trial.GoNoGo1.response";"trial.GoNoGo1.result";"trial.GoNoGo1.RT";"trial.GoNoGo1.signal";"trial.GoNoGo1.startTime";"trial.GoNoGo1.stimulus type";"trial.GoNoGo2.durationTime";"trial.GoNoGo2.endTime";"trial.GoNoGo2.Error Type";"trial.GoNoGo2.icon";"trial.GoNoGo2.location";"trial.GoNoGo2.outcome";"trial.GoNoGo2.response";"trial.GoNoGo2.result";"trial.GoNoGo2.RT";"trial.GoNoGo2.signal";"trial.GoNoGo2.startTime";"trial.GoNoGo2.stimulus type";"trial.GoNoGo3.durationTime";"trial.GoNoGo3.endTime";"trial.GoNoGo3.Error Type";"trial.GoNoGo3.icon";"trial.GoNoGo3.location";"trial.GoNoGo3.outcome";"trial.GoNoGo3.response";"trial.GoNoGo3.result";"trial.GoNoGo3.RT";"trial.GoNoGo3.signal";"trial.GoNoGo3.startTime";"trial.GoNoGo3.stimulus type";"trial.GoNoGo4.durationTime";"trial.GoNoGo4.endTime";"trial.GoNoGo4.Error Type";"trial.GoNoGo4.icon";"trial.GoNoGo4.location";"trial.GoNoGo4.outcome";"trial.GoNoGo4.response";"trial.GoNoGo4.result";"trial.GoNoGo4.RT";"trial.GoNoGo4.signal";"trial.GoNoGo4.startTime";"trial.GoNoGo4.stimulus type";"trial.GoNoGo_Practice.durationTime";"trial.GoNoGo_Practice.endTime";"trial.GoNoGo_Practice.icon";"trial.GoNoGo_Practice.location";"trial.GoNoGo_Practice.outcome";"trial.GoNoGo_Practice.response";"trial.GoNoGo_Practice.result";"trial.GoNoGo_Practice.RT";"trial.GoNoGo_Practice.signal";"trial.GoNoGo_Practice.startTime";"trial.GoNoGo_Practice.stimulus type";"trial.GoNoGo_Tutorial.durationTime";"trial.GoNoGo_Tutorial.endTime";"trial.GoNoGo_Tutorial.icon";"trial.GoNoGo_Tutorial.location";"trial.GoNoGo_Tutorial.outcome";"trial.GoNoGo_Tutorial.response";"trial.GoNoGo_Tutorial.result";"trial.GoNoGo_Tutorial.RT";"trial.GoNoGo_Tutorial.signal";"trial.GoNoGo_Tutorial.startTime"
"Quontr3lly";"1980";;"Windows 7";"Rachel's Experiment (D.T.)";"1.0";"2";"1";"1";"2";"1";"1";"2014-07-27 01:22:52.444";"2014-07-27 01:40:26.546";"1";"0";"1";"1";"0";"module.GoNoGotutorial.exec-6409.GoNoGo_Tutorial";;;;;;;;;;;;;;;;;;;;;;;;;;;;;;;;;;;;;;;;;;;;;;;;;;;;;;;;;;;;;;;;;;;;;;;;;;;;;;;;;;"4001";"2014-07-27 01:24:29.123";"leftResponse";"0";"FINISHED";"NONE";"failure";"0";"0";"2014-07-27 01:24:25.122"
"Quontr3lly";"1980";;"Windows 7";"Rachel's Experiment (D.T.)";"1.0";"2";"1";"1";"2";"1";"1";"2014-07-27 01:22:52.444";"2014-07-27 01:40:26.546";"1";"0";"1";"2";"1";"module.GoNoGotutorial.exec-6409.GoNoGo_Tutorial";;;;;;;;;;;;;;;;;;;;;;;;;;;;;;;;;;;;;;;;;;;;;;;;;;;;;;;;;;;;;;;;;;;;;;;;;;;;;;;;;;"4000";"2014-07-27 01:24:34.444";"rightResponse";"1";"FINISHED";"NONE";"failure";"0";"0";"2014-07-27 01:24:30.444"
"Quontr3lly";"1980";;"Windows 7";"Rachel's Experiment (D.T.)";"1.0";"2";"1";"1";"2";"1";"1";"2014-07-27 01:22:52.444";"2014-07-27 01:40:26.546";"1";"0";"1";"3";"2";"module.GoNoGotutorial.exec-6409.GoNoGo_Tutorial";;;;;;;;;;;;;;;;;;;;;;;;;;;;;;;;;;;;;;;;;;;;;;;;;;;;;;;;;;;;;;;;;;;;;;;;;;;;;;;;;;"3999";"2014-07-27 01:24:39.743";"quickResponse";"0";"FINISHED";"NONE";"failure";"0";"0";"2014-07-27 01:24:35.742"
"Quontr3lly";"1980";;"Windows 7";"Rachel's Experiment (D.T.)";"1.0";"2";"1";"1";"2";"1";"1";"2014-07-27 01:22:52.444";"2014-07-27 01:40:26.546";"1";"0";"1";"4";"3";"module.GoNoGopractice.exec-6961.GoNoGo_Practice";;;;;;;;;;;;;;;;;;;;;;;;;;;;;;;;;;;;;;;;;;;;;;;;;;;;;;;;;;;;;;;;;;;;;;;"1956";"2014-07-27 01:24:50.038";"18";"0";"FINISHED";"LEFT";"success";"390";"0";"2014-07-27 01:24:48.081";"3";;;;;;;;;;
"Quontr3lly";"1980";;"Windows 7";"Rachel's Experiment (D.T.)";"1.0";"2";"1";"1";"2";"1";"1";"2014-07-27 01:22:52.444";"2014-07-27 01:40:26.546";"1";"0";"1";"5";"4";"module.GoNoGopractice.exec-6961.GoNoGo_Practice";;;;;;;;;;;;;;;;;;;;;;;;;;;;;;;;;;;;;;;;;;;;;;;;;;;;;;;;;;;;;;;;;;;;;;;"1950";"2014-07-27 01:24:53.295";"21";"1";"FINISHED";"RIGHT";"success";"375";"0";"2014-07-27 01:24:51.344";"3";;;;;;;;;;
"Quontr3lly";"1980";;"Windows 7";"Rachel's Experiment (D.T.)";"1.0";"2";"1";"1";"2";"1";"1";"2014-07-27 01:22:52.444";"2014-07-27 01:40:26.546";"1";"0";"1";"6";"5";"module.GoNoGopractice.exec-6961.GoNoGo_Practice";;;;;;;;;;;;;;;;;;;;;;;;;;;;;;;;;;;;;;;;;;;;;;;;;;;;;;;;;;;;;;;;;;;;;;;"1951";"2014-07-27 01:24:56.546";"14";"1";"FINISHED";"RIGHT";"success";"525";"0";"2014-07-27 01:24:54.595";"2";;;;;;;;;;
"Quontr3lly";"1980";;"Windows 7";"Rachel's Experiment (D.T.)";"1.0";"2";"1";"1";"2";"1";"1";"2014-07-27 01:22:52.444";"2014-07-27 01:40:26.546";"1";"0";"1";"7";"6";"module.GoNoGopractice.exec-6961.GoNoGo_Practice";;;;;;;;;;;;;;;;;;;;;;;;;;;;;;;;;;;;;;;;;;;;;;;;;;;;;;;;;;;;;;;;;;;;;;;"1950";"2014-07-27 01:24:59.809";"26";"0";"FINISHED";"LEFT";"success";"382";"0";"2014-07-27 01:24:57.858";"3";;;;;;;;;;
"Quontr3lly";"1980";;"Windows 7";"Rachel's Experiment (D.T.)";"1.0";"2";"1";"1";"2";"1";"1";"2014-07-27 01:22:52.444";"2014-07-27 01:40:26.546";"1";"0";"1";"8";"7";"module.GoNoGopractice.exec-6961.GoNoGo_Practice";;;;;;;;;;;;;;;;;;;;;;;;;;;;;;;;;;;;;;;;;;;;;;;;;;;;;;;;;;;;;;;;;;;;;;;"1950";"2014-07-27 01:25:03.075";"2";"0";"FINISHED";"LEFT";"success";"412";"0";"2014-07-27 01:25:01.124";"1";;;;;;;;;;
"Quontr3lly";"1980";;"Windows 7";"Rachel's Experiment (D.T.)";"1.0";"2";"1";"1";"2";"1";"1";"2014-07-27 01:22:52.444";"2014-07-27 01:40:26.546";"1";"0";"1";"9";"8";"module.GoNoGopractice.exec-6961.GoNoGo_Practice";;;;;;;;;;;;;;;;;;;;;;;;;;;;;;;;;;;;;;;;;;;;;;;;;;;;;;;;;;;;;;;;;;;;;;;"1950";"2014-07-27 01:25:06.328";"30";"0";"FINISHED";"LEFT";"success";"407";"0";"2014-07-27 01:25:04.377";"3";;;;;;;;;;
"Quontr3lly";"1980";;"Windows 7";"Rachel's Experiment (D.T.)";"1.0";"2";"1";"1";"2";"1";"1";"2014-07-27 01:22:52.444";"2014-07-27 01:40:26.546";"1";"0";"1";"10";"9";"module.GoNoGopractice.exec-6961.GoNoGo_Practice";;;;;;;;;;;;;;;;;;;;;;;;;;;;;;;;;;;;;;;;;;;;;;;;;;;;;;;;;;;;;;;;;;;;;;;"1950";"2014-07-27 01:25:09.596";"6";"1";"FINISHED";"RIGHT";"success";"418";"0";"2014-07-27 01:25:07.645";"1";;;;;;;;;;
"Quontr3lly";"1980";;"Windows 7";"Rachel's Experiment (D.T.)";"1.0";"2";"1";"1";"2";"1";"1";"2014-07-27 01:22:52.444";"2014-07-27 01:40:26.546";"1";"0";"1";"11";"10";"module.GoNoGopractice.exec-6961.GoNoGo_Practice";;;;;;;;;;;;;;;;;;;;;;;;;;;;;;;;;;;;;;;;;;;;;;;;;;;;;;;;;;;;;;;;;;;;;;;"1950";"2014-07-27 01:25:12.862";"34";"0";"FINISHED";"LEFT";"success";"369";"0";"2014-07-27 01:25:10.911";"3";;;;;;;;;;
"Quontr3lly";"1980";;"Windows 7";"Rachel's Experiment (D.T.)";"1.0";"2";"1";"1";"2";"1";"1";"2014-07-27 01:22:52.444";"2014-07-27 01:40:26.546";"1";"0";"1";"12";"11";"module.GoNoGopractice.exec-6961.GoNoGo_Practice";;;;;;;;;;;;;;;;;;;;;;;;;;;;;;;;;;;;;;;;;;;;;;;;;;;;;;;;;;;;;;;;;;;;;;;"1951";"2014-07-27 01:25:16.113";"23";"1";"FINISHED";"RIGHT";"success";"317";"0";"2014-07-27 01:25:14.162";"3";;;;;;;;;;
"Quontr3lly";"1980";;"Windows 7";"Rachel's Experiment (D.T.)";"1.0";"2";"1";"1";"2";"1";"1";"2014-07-27 01:22:52.444";"2014-07-27 01:40:26.546";"1";"0";"1";"13";"12";"module.GoNoGopractice.exec-6961.GoNoGo_Practice";;;;;;;;;;;;;;;;;;;;;;;;;;;;;;;;;;;;;;;;;;;;;;;;;;;;;;;;;;;;;;;;;;;;;;;"1951";"2014-07-27 01:25:19.380";"13";"0";"FINISHED";"LEFT";"success";"268";"0";"2014-07-27 01:25:17.429";"2";;;;;;;;;;
"Quontr3lly";"1980";;"Windows 7";"Rachel's Experiment (D.T.)";"1.0";"2";"1";"1";"2";"1";"1";"2014-07-27 01:22:52.444";"2014-07-27 01:40:26.546";"1";"0";"1";"14";"13";"module.GoNoGopractice.exec-6961.GoNoGo_Practice";;;;;;;;;;;;;;;;;;;;;;;;;;;;;;;;;;;;;;;;;;;;;;;;;;;;;;;;;;;;;;;;;;;;;;;"1951";"2014-07-27 01:25:22.755";"3";"1";"FINISHED";"RIGHT";"success";"370";"0";"2014-07-27 01:25:20.804";"1";;;;;;;;;;
"Quontr3lly";"1980";;"Windows 7";"Rachel's Experiment (D.T.)";"1.0";"2";"1";"1";"2";"1";"1";"2014-07-27 01:22:52.444";"2014-07-27 01:40:26.546";"1";"0";"1";"15";"14";"module.GoNoGopractice.exec-6961.GoNoGo_Practice";;;;;;;;;;;;;;;;;;;;;;;;;;;;;;;;;;;;;;;;;;;;;;;;;;;;;;;;;;;;;;;;;;;;;;;"1950";"2014-07-27 01:25:26.015";"27";"1";"FINISHED";"RIGHT";"success";"470";"0";"2014-07-27 01:25:24.064";"3";;;;;;;;;;
"Quontr3lly";"1980";;"Windows 7";"Rachel's Experiment (D.T.)";"1.0";"2";"1";"1";"2";"1";"1";"2014-07-27 01:22:52.444";"2014-07-27 01:40:26.546";"1";"0";"1";"16";"15";"module.training_block1.exec-9321.GoNoGo1";;;;;;;;;;;;;;;;;;;;;;;"1250";"2014-07-27 01:25:47.613";"NST_correctLoc";"25";"0";"FINISHED";"LEFT";"success";"439";"0";"2014-07-27 01:25:46.362";"3";;;;;;;;;;;;;;;;;;;;;;;;;;;;;;;;;;;;;;;;;;;;;;;;;;;;;;;;;
"Quontr3lly";"1980";;"Windows 7";"Rachel's Experiment (D.T.)";"1.0";"2";"1";"1";"2";"1";"1";"2014-07-27 01:22:52.444";"2014-07-27 01:40:26.546";"1";"0";"1";"17";"16";"module.training_block1.exec-9321.GoNoGo1";;;;;;;;;;;;;;;;;;;;;;;"1249";"2014-07-27 01:25:50.176";"NST_correctLoc";"29";"1";"FINISHED";"RIGHT";"success";"547";"0";"2014-07-27 01:25:48.926";"3";;;;;;;;;;;;;;;;;;;;;;;;;;;;;;;;;;;;;;;;;;;;;;;;;;;;;;;;;
"Quontr3lly";"1980";;"Windows 7";"Rachel's Experiment (D.T.)";"1.0";"2";"1";"1";"2";"1";"1";"2014-07-27 01:22:52.444";"2014-07-27 01:40:26.546";"1";"0";"1";"18";"17";"module.training_block1.exec-9321.GoNoGo1";;;;;;;;;;;;;;;;;;;;;;;"1249";"2014-07-27 01:25:52.748";"NST_correctLoc";"11";"0";"FINISHED";"LEFT";"success";"366";"0";"2014-07-27 01:25:51.498";"2";;;;;;;;;;;;;;;;;;;;;;;;;;;;;;;;;;;;;;;;;;;;;;;;;;;;;;;;;
"Quontr3lly";"1980";;"Windows 7";"Rachel's Experiment (D.T.)";"1.0";"2";"1";"1";"2";"1";"1";"2014-07-27 01:22:52.444";"2014-07-27 01:40:26.546";"1";"0";"1";"19";"18";"module.training_block1.exec-9321.GoNoGo1";;;;;;;;;;;;;;;;;;;;;;;"1249";"2014-07-27 01:25:55.296";"NST_correctLoc";"24";"0";"FINISHED";"LEFT";"success";"399";"0";"2014-07-27 01:25:54.046";"3";;;;;;;;;;;;;;;;;;;;;;;;;;;;;;;;;;;;;;;;;;;;;;;;;;;;;;;;;
"Quontr3lly";"1980";;"Windows 7";"Rachel's Experiment (D.T.)";"1.0";"2";"1";"1";"2";"1";"1";"2014-07-27 01:22:52.444";"2014-07-27 01:40:26.546";"1";"0";"1";"20";"19";"module.training_block1.exec-9321.GoNoGo1";;;;;;;;;;;;;;;;;;;;;;;"1249";"2014-07-27 01:25:57.841";"NST_correctLoc";"3";"0";"FINISHED";"LEFT";"success";"391";"0";"2014-07-27 01:25:56.591";"1";;;;;;;;;;;;;;;;;;;;;;;;;;;;;;;;;;;;;;;;;;;;;;;;;;;;;;;;;
"Quontr3lly";"1980";;"Windows 7";"Rachel's Experiment (D.T.)";"1.0";"2";"1";"1";"2";"1";"1";"2014-07-27 01:22:52.444";"2014-07-27 01:40:26.546";"1";"0";"1";"21";"20";"module.training_block1.exec-9321.GoNoGo1";;;;;;;;;;;;;;;;;;;;;;;"1249";"2014-07-27 01:26:00.397";"NST_correctLoc";"31";"0";"FINISHED";"LEFT";"success";"468";"0";"2014-07-27 01:25:59.147";"3";;;;;;;;;;;;;;;;;;;;;;;;;;;;;;;;;;;;;;;;;;;;;;;;;;;;;;;;;
"Quontr3lly";"1980";;"Windows 7";"Rachel's Experiment (D.T.)";"1.0";"2";"1";"1";"2";"1";"1";"2014-07-27 01:22:52.444";"2014-07-27 01:40:26.546";"1";"0";"1";"22";"21";"module.training_block1.exec-9321.GoNoGo1";;;;;;;;;;;;;;;;;;;;;;;"1249";"2014-07-27 01:26:02.946";"NST_correctLoc";"28";"0";"FINISHED";"LEFT";"success";"343";"0";"2014-07-27 01:26:01.696";"3";;;;;;;;;;;;;;;;;;;;;;;;;;;;;;;;;;;;;;;;;;;;;;;;;;;;;;;;;
"Quontr3lly";"1980";;"Windows 7";"Rachel's Experiment (D.T.)";"1.0";"2";"1";"1";"2";"1";"1";"2014-07-27 01:22:52.444";"2014-07-27 01:40:26.546";"1";"0";"1";"23";"22";"module.training_block1.exec-9321.GoNoGo1";;;;;;;;;;;;;;;;;;;;;;;"1249";"2014-07-27 01:26:05.498";"NST_correctLoc";"23";"0";"FINISHED";"LEFT";"success";"392";"0";"2014-07-27 01:26:04.248";"3";;;;;;;;;;;;;;;;;;;;;;;;;;;;;;;;;;;;;;;;;;;;;;;;;;;;;;;;;
"Quontr3lly";"1980";;"Windows 7";"Rachel's Experiment (D.T.)";"1.0";"2";"1";"1";"2";"1";"1";"2014-07-27 01:22:52.444";"2014-07-27 01:40:26.546";"1";"0";"1";"24";"23";"module.training_block1.exec-9321.GoNoGo1";;;;;;;;;;;;;;;;;;;;;;;"1249";"2014-07-27 01:26:08.046";"NST_correctLoc";"2";"0";"FINISHED";"LEFT";"success";"355";"0";"2014-07-27 01:26:06.796";"1";;;;;;;;;;;;;;;;;;;;;;;;;;;;;;;;;;;;;;;;;;;;;;;;;;;;;;;;;
"Quontr3lly";"1980";;"Windows 7";"Rachel's Experiment (D.T.)";"1.0";"2";"1";"1";"2";"1";"1";"2014-07-27 01:22:52.444";"2014-07-27 01:40:26.546";"1";"0";"1";"25";"24";"module.training_block1.exec-9321.GoNoGo1";;;;;;;;;;;;;;;;;;;;;;;"1250";"2014-07-27 01:26:10.596";"NST_correctLoc";"1";"1";"FINISHED";"RIGHT";"success";"383";"0";"2014-07-27 01:26:09.346";"1";;;;;;;;;;;;;;;;;;;;;;;;;;;;;;;;;;;;;;;;;;;;;;;;;;;;;;;;;
"Quontr3lly";"1980";;"Windows 7";"Rachel's Experiment (D.T.)";"1.0";"2";"1";"1";"2";"1";"1";"2014-07-27 01:22:52.444";"2014-07-27 01:40:26.546";"1";"0";"1";"26";"25";"module.training_block1.exec-9321.GoNoGo1";;;;;;;;;;;;;;;;;;;;;;;"1249";"2014-07-27 01:26:13.146";"NST_correctLoc";"10";"0";"FINISHED";"LEFT";"success";"342";"0";"2014-07-27 01:26:11.896";"2";;;;;;;;;;;;;;;;;;;;;;;;;;;;;;;;;;;;;;;;;;;;;;;;;;;;;;;;;
"Quontr3lly";"1980";;"Windows 7";"Rachel's Experiment (D.T.)";"1.0";"2";"1";"1";"2";"1";"1";"2014-07-27 01:22:52.444";"2014-07-27 01:40:26.546";"1";"0";"1";"27";"26";"module.training_block1.exec-9321.GoNoGo1";;;;;;;;;;;;;;;;;;;;;;;"1249";"2014-07-27 01:26:15.693";"NST_correctLoc";"32";"1";"FINISHED";"RIGHT";"success";"412";"0";"2014-07-27 01:26:14.443";"3";;;;;;;;;;;;;;;;;;;;;;;;;;;;;;;;;;;;;;;;;;;;;;;;;;;;;;;;;
"Quontr3lly";"1980";;"Windows 7";"Rachel's Experiment (D.T.)";"1.0";"2";"1";"1";"2";"1";"1";"2014-07-27 01:22:52.444";"2014-07-27 01:40:26.546";"1";"0";"1";"28";"27";"module.training_block1.exec-9321.GoNoGo1";;;;;;;;;;;;;;;;;;;;;;;"1249";"2014-07-27 01:26:18.245";"NST_correctLoc";"30";"0";"FINISHED";"LEFT";"success";"340";"0";"2014-07-27 01:26:16.995";"3";;;;;;;;;;;;;;;;;;;;;;;;;;;;;;;;;;;;;;;;;;;;;;;;;;;;;;;;;
"Quontr3lly";"1980";;"Windows 7";"Rachel's Experiment (D.T.)";"1.0";"2";"1";"1";"2";"1";"1";"2014-07-27 01:22:52.444";"2014-07-27 01:40:26.546";"1";"0";"1";"29";"28";"module.training_block1.exec-9321.GoNoGo1";;;;;;;;;;;;;;;;;;;;;;;"1250";"2014-07-27 01:26:20.796";"NST_correctLoc";"18";"0";"FINISHED";"LEFT";"success";"420";"0";"2014-07-27 01:26:19.546";"3";;;;;;;;;;;;;;;;;;;;;;;;;;;;;;;;;;;;;;;;;;;;;;;;;;;;;;;;;
"Quontr3lly";"1980";;"Windows 7";"Rachel's Experiment (D.T.)";"1.0";"2";"1";"1";"2";"1";"1";"2014-07-27 01:22:52.444";"2014-07-27 01:40:26.546";"1";"0";"1";"30";"29";"module.training_block1.exec-9321.GoNoGo1";;;;;;;;;;;;;;;;;;;;;;;"1249";"2014-07-27 01:26:23.353";"NST_correctLoc";"4";"1";"FINISHED";"RIGHT";"success";"409";"0";"2014-07-27 01:26:22.103";"1";;;;;;;;;;;;;;;;;;;;;;;;;;;;;;;;;;;;;;;;;;;;;;;;;;;;;;;;;
"Quontr3lly";"1980";;"Windows 7";"Rachel's Experiment (D.T.)";"1.0";"2";"1";"1";"2";"1";"1";"2014-07-27 01:22:52.444";"2014-07-27 01:40:26.546";"1";"0";"1";"31";"30";"module.training_block1.exec-9321.GoNoGo1";;;;;;;;;;;;;;;;;;;;;;;"1249";"2014-07-27 01:26:25.900";"NST_correctLoc";"22";"1";"FINISHED";"RIGHT";"success";"550";"0";"2014-07-27 01:26:24.650";"3";;;;;;;;;;;;;;;;;;;;;;;;;;;;;;;;;;;;;;;;;;;;;;;;;;;;;;;;;
"Quontr3lly";"1980";;"Windows 7";"Rachel's Experiment (D.T.)";"1.0";"2";"1";"1";"2";"1";"1";"2014-07-27 01:22:52.444";"2014-07-27 01:40:26.546";"1";"0";"1";"32";"31";"module.training_block1.exec-9321.GoNoGo1";;;;;;;;;;;;;;;;;;;;;;;"1249";"2014-07-27 01:26:28.450";"NST_correctLoc";"12";"0";"FINISHED";"LEFT";"success";"456";"0";"2014-07-27 01:26:27.200";"2";;;;;;;;;;;;;;;;;;;;;;;;;;;;;;;;;;;;;;;;;;;;;;;;;;;;;;;;;
"Quontr3lly";"1980";;"Windows 7";"Rachel's Experiment (D.T.)";"1.0";"2";"1";"1";"2";"1";"1";"2014-07-27 01:22:52.444";"2014-07-27 01:40:26.546";"1";"0";"1";"33";"32";"module.training_block1.exec-9321.GoNoGo1";;;;;;;;;;;;;;;;;;;;;;;"1249";"2014-07-27 01:26:30.997";"NST_correctLoc";"21";"1";"FINISHED";"RIGHT";"success";"445";"0";"2014-07-27 01:26:29.747";"3";;;;;;;;;;;;;;;;;;;;;;;;;;;;;;;;;;;;;;;;;;;;;;;;;;;;;;;;;
"Quontr3lly";"1980";;"Windows 7";"Rachel's Experiment (D.T.)";"1.0";"2";"1";"1";"2";"1";"1";"2014-07-27 01:22:52.444";"2014-07-27 01:40:26.546";"1";"0";"1";"34";"33";"module.training_block1.exec-9321.GoNoGo1";;;;;;;;;;;;;;;;;;;;;;;"1249";"2014-07-27 01:26:33.547";"NST_correctLoc";"17";"1";"FINISHED";"RIGHT";"success";"527";"0";"2014-07-27 01:26:32.297";"2";;;;;;;;;;;;;;;;;;;;;;;;;;;;;;;;;;;;;;;;;;;;;;;;;;;;;;;;;
"Quontr3lly";"1980";;"Windows 7";"Rachel's Experiment (D.T.)";"1.0";"2";"1";"1";"2";"1";"1";"2014-07-27 01:22:52.444";"2014-07-27 01:40:26.546";"1";"0";"1";"35";"34";"module.training_block1.exec-9321.GoNoGo1";;;;;;;;;;;;;;;;;;;;;;;"1249";"2014-07-27 01:26:36.114";"NST_correctLoc";"16";"1";"FINISHED";"RIGHT";"success";"552";"0";"2014-07-27 01:26:34.864";"2";;;;;;;;;;;;;;;;;;;;;;;;;;;;;;;;;;;;;;;;;;;;;;;;;;;;;;;;;
"Quontr3lly";"1980";;"Windows 7";"Rachel's Experiment (D.T.)";"1.0";"2";"1";"1";"2";"1";"1";"2014-07-27 01:22:52.444";"2014-07-27 01:40:26.546";"1";"0";"1";"36";"35";"module.training_block1.exec-9321.GoNoGo1";;;;;;;;;;;;;;;;;;;;;;;"1249";"2014-07-27 01:26:38.681";"NST_correctLoc";"35";"1";"FINISHED";"RIGHT";"success";"609";"0";"2014-07-27 01:26:37.430";"3";;;;;;;;;;;;;;;;;;;;;;;;;;;;;;;;;;;;;;;;;;;;;;;;;;;;;;;;;
"Quontr3lly";"1980";;"Windows 7";"Rachel's Experiment (D.T.)";"1.0";"2";"1";"1";"2";"1";"1";"2014-07-27 01:22:52.444";"2014-07-27 01:40:26.546";"1";"0";"1";"37";"36";"module.training_block1.exec-9321.GoNoGo1";;;;;;;;;;;;;;;;;;;;;;;"1250";"2014-07-27 01:26:41.228";"NST_correctLoc";"33";"1";"FINISHED";"RIGHT";"success";"487";"0";"2014-07-27 01:26:39.978";"3";;;;;;;;;;;;;;;;;;;;;;;;;;;;;;;;;;;;;;;;;;;;;;;;;;;;;;;;;
"Quontr3lly";"1980";;"Windows 7";"Rachel's Experiment (D.T.)";"1.0";"2";"1";"1";"2";"1";"1";"2014-07-27 01:22:52.444";"2014-07-27 01:40:26.546";"1";"0";"1";"38";"37";"module.training_block1.exec-9321.GoNoGo1";;;;;;;;;;;;;;;;;;;;;;;"1249";"2014-07-27 01:26:43.776";"NST_correctLoc";"27";"1";"FINISHED";"RIGHT";"success";"585";"0";"2014-07-27 01:26:42.526";"3";;;;;;;;;;;;;;;;;;;;;;;;;;;;;;;;;;;;;;;;;;;;;;;;;;;;;;;;;
"Quontr3lly";"1980";;"Windows 7";"Rachel's Experiment (D.T.)";"1.0";"2";"1";"1";"2";"1";"1";"2014-07-27 01:22:52.444";"2014-07-27 01:40:26.546";"1";"0";"1";"39";"38";"module.training_block1.exec-9321.GoNoGo1";;;;;;;;;;;;;;;;;;;;;;;"1250";"2014-07-27 01:26:46.332";"NST_correctLoc";"6";"1";"FINISHED";"RIGHT";"success";"542";"0";"2014-07-27 01:26:45.082";"1";;;;;;;;;;;;;;;;;;;;;;;;;;;;;;;;;;;;;;;;;;;;;;;;;;;;;;;;;
"Quontr3lly";"1980";;"Windows 7";"Rachel's Experiment (D.T.)";"1.0";"2";"1";"1";"2";"1";"1";"2014-07-27 01:22:52.444";"2014-07-27 01:40:26.546";"1";"0";"1";"40";"39";"module.training_block1.exec-9321.GoNoGo1";;;;;;;;;;;;;;;;;;;;;;;"1250";"2014-07-27 01:26:48.881";"NST_correctLoc";"34";"0";"FINISHED";"LEFT";"success";"441";"0";"2014-07-27 01:26:47.630";"3";;;;;;;;;;;;;;;;;;;;;;;;;;;;;;;;;;;;;;;;;;;;;;;;;;;;;;;;;
"Quontr3lly";"1980";;"Windows 7";"Rachel's Experiment (D.T.)";"1.0";"2";"1";"1";"2";"1";"1";"2014-07-27 01:22:52.444";"2014-07-27 01:40:26.546";"1";"0";"1";"41";"40";"module.training_block1.exec-9321.GoNoGo1";;;;;;;;;;;;;;;;;;;;;;;"1249";"2014-07-27 01:26:51.431";"NST_correctLoc";"9";"1";"FINISHED";"RIGHT";"success";"723";"0";"2014-07-27 01:26:50.181";"2";;;;;;;;;;;;;;;;;;;;;;;;;;;;;;;;;;;;;;;;;;;;;;;;;;;;;;;;;
"Quontr3lly";"1980";;"Windows 7";"Rachel's Experiment (D.T.)";"1.0";"2";"1";"1";"2";"1";"1";"2014-07-27 01:22:52.444";"2014-07-27 01:40:26.546";"1";"0";"1";"42";"41";"module.training_block1.exec-9321.GoNoGo1";;;;;;;;;;;;;;;;;;;;;;;"1249";"2014-07-27 01:26:53.983";"NST_correctLoc";"13";"0";"FINISHED";"LEFT";"success";"483";"0";"2014-07-27 01:26:52.733";"2";;;;;;;;;;;;;;;;;;;;;;;;;;;;;;;;;;;;;;;;;;;;;;;;;;;;;;;;;
"Quontr3lly";"1980";;"Windows 7";"Rachel's Experiment (D.T.)";"1.0";"2";"1";"1";"2";"1";"1";"2014-07-27 01:22:52.444";"2014-07-27 01:40:26.546";"1";"0";"1";"43";"42";"module.training_block1.exec-9321.GoNoGo1";;;;;;;;;;;;;;;;;;;;;;;"1249";"2014-07-27 01:26:56.532";"NST_correctLoc";"7";"0";"FINISHED";"LEFT";"success";"430";"0";"2014-07-27 01:26:55.281";"1";;;;;;;;;;;;;;;;;;;;;;;;;;;;;;;;;;;;;;;;;;;;;;;;;;;;;;;;;
"Quontr3lly";"1980";;"Windows 7";"Rachel's Experiment (D.T.)";"1.0";"2";"1";"1";"2";"1";"1";"2014-07-27 01:22:52.444";"2014-07-27 01:40:26.546";"1";"0";"1";"44";"43";"module.training_block1.exec-9321.GoNoGo1";;;;;;;;;;;;;;;;;;;;;;;"1249";"2014-07-27 01:26:59.079";"NST_correctLoc";"19";"1";"FINISHED";"RIGHT";"success";"500";"0";"2014-07-27 01:26:57.829";"3";;;;;;;;;;;;;;;;;;;;;;;;;;;;;;;;;;;;;;;;;;;;;;;;;;;;;;;;;
"Quontr3lly";"1980";;"Windows 7";"Rachel's Experiment (D.T.)";"1.0";"2";"1";"1";"2";"1";"1";"2014-07-27 01:22:52.444";"2014-07-27 01:40:26.546";"1";"0";"1";"45";"44";"module.training_block1.exec-9321.GoNoGo1";;;;;;;;;;;;;;;;;;;;;;;"1249";"2014-07-27 01:27:01.632";"NST_correctLoc";"14";"0";"FINISHED";"LEFT";"success";"498";"0";"2014-07-27 01:27:00.382";"2";;;;;;;;;;;;;;;;;;;;;;;;;;;;;;;;;;;;;;;;;;;;;;;;;;;;;;;;;
"Quontr3lly";"1980";;"Windows 7";"Rachel's Experiment (D.T.)";"1.0";"2";"1";"1";"2";"1";"1";"2014-07-27 01:22:52.444";"2014-07-27 01:40:26.546";"1";"0";"1";"46";"45";"module.training_block1.exec-9321.GoNoGo1";;;;;;;;;;;;;;;;;;;;;;;"1250";"2014-07-27 01:27:04.182";"NST_correctLoc";"5";"0";"FINISHED";"LEFT";"success";"435";"0";"2014-07-27 01:27:02.931";"1";;;;;;;;;;;;;;;;;;;;;;;;;;;;;;;;;;;;;;;;;;;;;;;;;;;;;;;;;
"Quontr3lly";"1980";;"Windows 7";"Rachel's Experiment (D.T.)";"1.0";"2";"1";"1";"2";"1";"1";"2014-07-27 01:22:52.444";"2014-07-27 01:40:26.546";"1";"0";"1";"47";"46";"module.training_block1.exec-9321.GoNoGo1";;;;;;;;;;;;;;;;;;;;;;;"1249";"2014-07-27 01:27:06.732";"NST_correctLoc";"26";"0";"FINISHED";"LEFT";"success";"445";"0";"2014-07-27 01:27:05.482";"3";;;;;;;;;;;;;;;;;;;;;;;;;;;;;;;;;;;;;;;;;;;;;;;;;;;;;;;;;
"Quontr3lly";"1980";;"Windows 7";"Rachel's Experiment (D.T.)";"1.0";"2";"1";"1";"2";"1";"1";"2014-07-27 01:22:52.444";"2014-07-27 01:40:26.546";"1";"0";"1";"48";"47";"module.training_block1.exec-9321.GoNoGo1";;;;;;;;;;;;;;;;;;;;;;;"1250";"2014-07-27 01:27:09.282";"NST_correctLoc";"15";"1";"FINISHED";"RIGHT";"success";"510";"0";"2014-07-27 01:27:08.032";"2";;;;;;;;;;;;;;;;;;;;;;;;;;;;;;;;;;;;;;;;;;;;;;;;;;;;;;;;;
"Quontr3lly";"1980";;"Windows 7";"Rachel's Experiment (D.T.)";"1.0";"2";"1";"1";"2";"1";"1";"2014-07-27 01:22:52.444";"2014-07-27 01:40:26.546";"1";"0";"1";"49";"48";"module.training_block1.exec-9321.GoNoGo1";;;;;;;;;;;;;;;;;;;;;;;"1250";"2014-07-27 01:27:11.832";"NST_correctLoc";"20";"1";"FINISHED";"RIGHT";"success";"520";"0";"2014-07-27 01:27:10.582";"3";;;;;;;;;;;;;;;;;;;;;;;;;;;;;;;;;;;;;;;;;;;;;;;;;;;;;;;;;
"Quontr3lly";"1980";;"Windows 7";"Rachel's Experiment (D.T.)";"1.0";"2";"1";"1";"2";"1";"1";"2014-07-27 01:22:52.444";"2014-07-27 01:40:26.546";"1";"0";"1";"50";"49";"module.training_block1.exec-9321.GoNoGo1";;;;;;;;;;;;;;;;;;;;;;;"1249";"2014-07-27 01:27:14.399";"NST_correctLoc";"8";"0";"FINISHED";"LEFT";"success";"387";"0";"2014-07-27 01:27:13.148";"1";;;;;;;;;;;;;;;;;;;;;;;;;;;;;;;;;;;;;;;;;;;;;;;;;;;;;;;;;
"Quontr3lly";"1980";;"Windows 7";"Rachel's Experiment (D.T.)";"1.0";"2";"1";"1";"2";"1";"1";"2014-07-27 01:22:52.444";"2014-07-27 01:40:26.546";"1";"0";"1";"51";"50";"module.training_block1.exec-9321.GoNoGo1";;;;;;;;;;;;;;;;;;;;;;;"1249";"2014-07-27 01:27:16.949";"NST_correctLoc";"0";"1";"FINISHED";"RIGHT";"success";"405";"0";"2014-07-27 01:27:15.699";"1";;;;;;;;;;;;;;;;;;;;;;;;;;;;;;;;;;;;;;;;;;;;;;;;;;;;;;;;;
"Quontr3lly";"1980";;"Windows 7";"Rachel's Experiment (D.T.)";"1.0";"2";"1";"1";"2";"1";"1";"2014-07-27 01:22:52.444";"2014-07-27 01:40:26.546";"1";"0";"1";"52";"51";"module.training_block2.exec-2928.GoNoGo2";;;;;;;;;;;;;;;;;;;;;;;;;;;;;;;;;;;"1249";"2014-07-27 01:27:28.981";"NST_correctLoc";"22";"0";"FINISHED";"LEFT";"success";"596";"0";"2014-07-27 01:27:27.731";"3";;;;;;;;;;;;;;;;;;;;;;;;;;;;;;;;;;;;;;;;;;;;;
"Quontr3lly";"1980";;"Windows 7";"Rachel's Experiment (D.T.)";"1.0";"2";"1";"1";"2";"1";"1";"2014-07-27 01:22:52.444";"2014-07-27 01:40:26.546";"1";"0";"1";"53";"52";"module.training_block2.exec-2928.GoNoGo2";;;;;;;;;;;;;;;;;;;;;;;;;;;;;;;;;;;"1249";"2014-07-27 01:27:31.528";"NST_correctLoc";"34";"1";"FINISHED";"RIGHT";"success";"792";"0";"2014-07-27 01:27:30.277";"3";;;;;;;;;;;;;;;;;;;;;;;;;;;;;;;;;;;;;;;;;;;;;
"Quontr3lly";"1980";;"Windows 7";"Rachel's Experiment (D.T.)";"1.0";"2";"1";"1";"2";"1";"1";"2014-07-27 01:22:52.444";"2014-07-27 01:40:26.546";"1";"0";"1";"54";"53";"module.training_block2.exec-2928.GoNoGo2";;;;;;;;;;;;;;;;;;;;;;;;;;;;;;;;;;;"1249";"2014-07-27 01:27:34.078";"NST_correctLoc";"35";"1";"FINISHED";"RIGHT";"success";"466";"0";"2014-07-27 01:27:32.828";"3";;;;;;;;;;;;;;;;;;;;;;;;;;;;;;;;;;;;;;;;;;;;;
"Quontr3lly";"1980";;"Windows 7";"Rachel's Experiment (D.T.)";"1.0";"2";"1";"1";"2";"1";"1";"2014-07-27 01:22:52.444";"2014-07-27 01:40:26.546";"1";"0";"1";"55";"54";"module.training_block2.exec-2928.GoNoGo2";;;;;;;;;;;;;;;;;;;;;;;;;;;;;;;;;;;"1249";"2014-07-27 01:27:36.628";"NST_correctLoc";"10";"1";"FINISHED";"RIGHT";"success";"421";"0";"2014-07-27 01:27:35.378";"2";;;;;;;;;;;;;;;;;;;;;;;;;;;;;;;;;;;;;;;;;;;;;
"Quontr3lly";"1980";;"Windows 7";"Rachel's Experiment (D.T.)";"1.0";"2";"1";"1";"2";"1";"1";"2014-07-27 01:22:52.444";"2014-07-27 01:40:26.546";"1";"0";"1";"56";"55";"module.training_block2.exec-2928.GoNoGo2";;;;;;;;;;;;;;;;;;;;;;;;;;;;;;;;;;;"1249";"2014-07-27 01:27:39.178";"NST_correctLoc";"21";"1";"FINISHED";"RIGHT";"success";"423";"0";"2014-07-27 01:27:37.928";"3";;;;;;;;;;;;;;;;;;;;;;;;;;;;;;;;;;;;;;;;;;;;;
"Quontr3lly";"1980";;"Windows 7";"Rachel's Experiment (D.T.)";"1.0";"2";"1";"1";"2";"1";"1";"2014-07-27 01:22:52.444";"2014-07-27 01:40:26.546";"1";"0";"1";"57";"56";"module.training_block2.exec-2928.GoNoGo2";;;;;;;;;;;;;;;;;;;;;;;;;;;;;;;;;;;"1249";"2014-07-27 01:27:41.729";"NST_correctLoc";"32";"1";"FINISHED";"RIGHT";"success";"401";"0";"2014-07-27 01:27:40.479";"3";;;;;;;;;;;;;;;;;;;;;;;;;;;;;;;;;;;;;;;;;;;;;
"Quontr3lly";"1980";;"Windows 7";"Rachel's Experiment (D.T.)";"1.0";"2";"1";"1";"2";"1";"1";"2014-07-27 01:22:52.444";"2014-07-27 01:40:26.546";"1";"0";"1";"58";"57";"module.training_block2.exec-2928.GoNoGo2";;;;;;;;;;;;;;;;;;;;;;;;;;;;;;;;;;;"1249";"2014-07-27 01:27:44.278";"NST_correctLoc";"28";"0";"FINISHED";"LEFT";"success";"420";"0";"2014-07-27 01:27:43.028";"3";;;;;;;;;;;;;;;;;;;;;;;;;;;;;;;;;;;;;;;;;;;;;
"Quontr3lly";"1980";;"Windows 7";"Rachel's Experiment (D.T.)";"1.0";"2";"1";"1";"2";"1";"1";"2014-07-27 01:22:52.444";"2014-07-27 01:40:26.546";"1";"0";"1";"59";"58";"module.training_block2.exec-2928.GoNoGo2";;;;;;;;;;;;;;;;;;;;;;;;;;;;;;;;;;;"1249";"2014-07-27 01:27:46.828";"NST_correctLoc";"0";"0";"FINISHED";"LEFT";"success";"413";"0";"2014-07-27 01:27:45.578";"1";;;;;;;;;;;;;;;;;;;;;;;;;;;;;;;;;;;;;;;;;;;;;
"Quontr3lly";"1980";;"Windows 7";"Rachel's Experiment (D.T.)";"1.0";"2";"1";"1";"2";"1";"1";"2014-07-27 01:22:52.444";"2014-07-27 01:40:26.546";"1";"0";"1";"60";"59";"module.training_block2.exec-2928.GoNoGo2";;;;;;;;;;;;;;;;;;;;;;;;;;;;;;;;;;;"1249";"2014-07-27 01:27:49.379";"NST_correctLoc";"27";"1";"FINISHED";"RIGHT";"success";"367";"0";"2014-07-27 01:27:48.128";"3";;;;;;;;;;;;;;;;;;;;;;;;;;;;;;;;;;;;;;;;;;;;;
"Quontr3lly";"1980";;"Windows 7";"Rachel's Experiment (D.T.)";"1.0";"2";"1";"1";"2";"1";"1";"2014-07-27 01:22:52.444";"2014-07-27 01:40:26.546";"1";"0";"1";"61";"60";"module.training_block2.exec-2928.GoNoGo2";;;;;;;;;;;;;;;;;;;;;;;;;;;;;;;;;;;"1249";"2014-07-27 01:27:51.928";"NST_correctLoc";"9";"0";"FINISHED";"LEFT";"success";"368";"0";"2014-07-27 01:27:50.678";"2";;;;;;;;;;;;;;;;;;;;;;;;;;;;;;;;;;;;;;;;;;;;;
"Quontr3lly";"1980";;"Windows 7";"Rachel's Experiment (D.T.)";"1.0";"2";"1";"1";"2";"1";"1";"2014-07-27 01:22:52.444";"2014-07-27 01:40:26.546";"1";"0";"1";"62";"61";"module.training_block2.exec-2928.GoNoGo2";;;;;;;;;;;;;;;;;;;;;;;;;;;;;;;;;;;"1249";"2014-07-27 01:27:54.478";"NST_correctLoc";"31";"0";"FINISHED";"LEFT";"success";"411";"0";"2014-07-27 01:27:53.228";"3";;;;;;;;;;;;;;;;;;;;;;;;;;;;;;;;;;;;;;;;;;;;;
"Quontr3lly";"1980";;"Windows 7";"Rachel's Experiment (D.T.)";"1.0";"2";"1";"1";"2";"1";"1";"2014-07-27 01:22:52.444";"2014-07-27 01:40:26.546";"1";"0";"1";"63";"62";"module.training_block2.exec-2928.GoNoGo2";;;;;;;;;;;;;;;;;;;;;;;;;;;;;;;;;;;"1250";"2014-07-27 01:27:57.029";"NST_correctLoc";"18";"1";"FINISHED";"RIGHT";"success";"453";"0";"2014-07-27 01:27:55.779";"3";;;;;;;;;;;;;;;;;;;;;;;;;;;;;;;;;;;;;;;;;;;;;
"Quontr3lly";"1980";;"Windows 7";"Rachel's Experiment (D.T.)";"1.0";"2";"1";"1";"2";"1";"1";"2014-07-27 01:22:52.444";"2014-07-27 01:40:26.546";"1";"0";"1";"64";"63";"module.training_block2.exec-2928.GoNoGo2";;;;;;;;;;;;;;;;;;;;;;;;;;;;;;;;;;;"1249";"2014-07-27 01:27:59.578";"NST_correctLoc";"15";"0";"FINISHED";"LEFT";"success";"342";"0";"2014-07-27 01:27:58.328";"2";;;;;;;;;;;;;;;;;;;;;;;;;;;;;;;;;;;;;;;;;;;;;
"Quontr3lly";"1980";;"Windows 7";"Rachel's Experiment (D.T.)";"1.0";"2";"1";"1";"2";"1";"1";"2014-07-27 01:22:52.444";"2014-07-27 01:40:26.546";"1";"0";"1";"65";"64";"module.training_block2.exec-2928.GoNoGo2";;;;;;;;;;;;;;;;;;;;;;;;;;;;;;;;;;;"1249";"2014-07-27 01:28:02.128";"NST_correctLoc";"25";"0";"FINISHED";"LEFT";"success";"442";"0";"2014-07-27 01:28:00.878";"3";;;;;;;;;;;;;;;;;;;;;;;;;;;;;;;;;;;;;;;;;;;;;
"Quontr3lly";"1980";;"Windows 7";"Rachel's Experiment (D.T.)";"1.0";"2";"1";"1";"2";"1";"1";"2014-07-27 01:22:52.444";"2014-07-27 01:40:26.546";"1";"0";"1";"66";"65";"module.training_block2.exec-2928.GoNoGo2";;;;;;;;;;;;;;;;;;;;;;;;;;;;;;;;;;;"1249";"2014-07-27 01:28:04.678";"NST_correctLoc";"30";"1";"FINISHED";"RIGHT";"success";"444";"0";"2014-07-27 01:28:03.428";"3";;;;;;;;;;;;;;;;;;;;;;;;;;;;;;;;;;;;;;;;;;;;;
"Quontr3lly";"1980";;"Windows 7";"Rachel's Experiment (D.T.)";"1.0";"2";"1";"1";"2";"1";"1";"2014-07-27 01:22:52.444";"2014-07-27 01:40:26.546";"1";"0";"1";"67";"66";"module.training_block2.exec-2928.GoNoGo2";;;;;;;;;;;;;;;;;;;;;;;;;;;;;;;;;;;"1249";"2014-07-27 01:28:07.229";"NST_correctLoc";"7";"1";"FINISHED";"RIGHT";"success";"428";"0";"2014-07-27 01:28:05.979";"1";;;;;;;;;;;;;;;;;;;;;;;;;;;;;;;;;;;;;;;;;;;;;
"Quontr3lly";"1980";;"Windows 7";"Rachel's Experiment (D.T.)";"1.0";"2";"1";"1";"2";"1";"1";"2014-07-27 01:22:52.444";"2014-07-27 01:40:26.546";"1";"0";"1";"68";"67";"module.training_block2.exec-2928.GoNoGo2";;;;;;;;;;;;;;;;;;;;;;;;;;;;;;;;;;;"1249";"2014-07-27 01:28:09.779";"NST_correctLoc";"16";"0";"FINISHED";"LEFT";"success";"391";"0";"2014-07-27 01:28:08.529";"2";;;;;;;;;;;;;;;;;;;;;;;;;;;;;;;;;;;;;;;;;;;;;
"Quontr3lly";"1980";;"Windows 7";"Rachel's Experiment (D.T.)";"1.0";"2";"1";"1";"2";"1";"1";"2014-07-27 01:22:52.444";"2014-07-27 01:40:26.546";"1";"0";"1";"69";"68";"module.training_block2.exec-2928.GoNoGo2";;;;;;;;;;;;;;;;;;;;;;;;;;;;;;;;;;;"1249";"2014-07-27 01:28:12.328";"NST_correctLoc";"5";"1";"FINISHED";"RIGHT";"success";"362";"0";"2014-07-27 01:28:11.078";"1";;;;;;;;;;;;;;;;;;;;;;;;;;;;;;;;;;;;;;;;;;;;;
"Quontr3lly";"1980";;"Windows 7";"Rachel's Experiment (D.T.)";"1.0";"2";"1";"1";"2";"1";"1";"2014-07-27 01:22:52.444";"2014-07-27 01:40:26.546";"1";"0";"1";"70";"69";"module.training_block2.exec-2928.GoNoGo2";;;;;;;;;;;;;;;;;;;;;;;;;;;;;;;;;;;"1249";"2014-07-27 01:28:14.896";"NST_correctLoc";"33";"1";"FINISHED";"RIGHT";"success";"424";"0";"2014-07-27 01:28:13.646";"3";;;;;;;;;;;;;;;;;;;;;;;;;;;;;;;;;;;;;;;;;;;;;
"Quontr3lly";"1980";;"Windows 7";"Rachel's Experiment (D.T.)";"1.0";"2";"1";"1";"2";"1";"1";"2014-07-27 01:22:52.444";"2014-07-27 01:40:26.546";"1";"0";"1";"71";"70";"module.training_block2.exec-2928.GoNoGo2";;;;;;;;;;;;;;;;;;;;;;;;;;;;;;;;;;;"1249";"2014-07-27 01:28:17.463";"NST_correctLoc";"23";"0";"FINISHED";"LEFT";"success";"353";"0";"2014-07-27 01:28:16.213";"3";;;;;;;;;;;;;;;;;;;;;;;;;;;;;;;;;;;;;;;;;;;;;
"Quontr3lly";"1980";;"Windows 7";"Rachel's Experiment (D.T.)";"1.0";"2";"1";"1";"2";"1";"1";"2014-07-27 01:22:52.444";"2014-07-27 01:40:26.546";"1";"0";"1";"72";"71";"module.training_block2.exec-2928.GoNoGo2";;;;;;;;;;;;;;;;;;;;;;;;;;;;;;;;;;;"1249";"2014-07-27 01:28:20.011";"NST_correctLoc";"29";"0";"FINISHED";"LEFT";"success";"406";"0";"2014-07-27 01:28:18.761";"3";;;;;;;;;;;;;;;;;;;;;;;;;;;;;;;;;;;;;;;;;;;;;
"Quontr3lly";"1980";;"Windows 7";"Rachel's Experiment (D.T.)";"1.0";"2";"1";"1";"2";"1";"1";"2014-07-27 01:22:52.444";"2014-07-27 01:40:26.546";"1";"0";"1";"73";"72";"module.training_block2.exec-2928.GoNoGo2";;;;;;;;;;;;;;;;;;;;;;;;;;;;;;;;;;;"1249";"2014-07-27 01:28:22.562";"NST_correctLoc";"17";"0";"FINISHED";"LEFT";"success";"416";"0";"2014-07-27 01:28:21.312";"2";;;;;;;;;;;;;;;;;;;;;;;;;;;;;;;;;;;;;;;;;;;;;
"Quontr3lly";"1980";;"Windows 7";"Rachel's Experiment (D.T.)";"1.0";"2";"1";"1";"2";"1";"1";"2014-07-27 01:22:52.444";"2014-07-27 01:40:26.546";"1";"0";"1";"74";"73";"module.training_block2.exec-2928.GoNoGo2";;;;;;;;;;;;;;;;;;;;;;;;;;;;;;;;;;;"1249";"2014-07-27 01:28:25.113";"NST_correctLoc";"26";"1";"FINISHED";"RIGHT";"success";"369";"0";"2014-07-27 01:28:23.863";"3";;;;;;;;;;;;;;;;;;;;;;;;;;;;;;;;;;;;;;;;;;;;;
"Quontr3lly";"1980";;"Windows 7";"Rachel's Experiment (D.T.)";"1.0";"2";"1";"1";"2";"1";"1";"2014-07-27 01:22:52.444";"2014-07-27 01:40:26.546";"1";"0";"1";"75";"74";"module.training_block2.exec-2928.GoNoGo2";;;;;;;;;;;;;;;;;;;;;;;;;;;;;;;;;;;"1249";"2014-07-27 01:28:27.663";"NST_correctLoc";"8";"1";"FINISHED";"RIGHT";"success";"410";"0";"2014-07-27 01:28:26.413";"1";;;;;;;;;;;;;;;;;;;;;;;;;;;;;;;;;;;;;;;;;;;;;
"Quontr3lly";"1980";;"Windows 7";"Rachel's Experiment (D.T.)";"1.0";"2";"1";"1";"2";"1";"1";"2014-07-27 01:22:52.444";"2014-07-27 01:40:26.546";"1";"0";"1";"76";"75";"module.training_block2.exec-2928.GoNoGo2";;;;;;;;;;;;;;;;;;;;;;;;;;;;;;;;;;;"1249";"2014-07-27 01:28:30.213";"NST_correctLoc";"3";"1";"FINISHED";"RIGHT";"success";"421";"0";"2014-07-27 01:28:28.963";"1";;;;;;;;;;;;;;;;;;;;;;;;;;;;;;;;;;;;;;;;;;;;;
"Quontr3lly";"1980";;"Windows 7";"Rachel's Experiment (D.T.)";"1.0";"2";"1";"1";"2";"1";"1";"2014-07-27 01:22:52.444";"2014-07-27 01:40:26.546";"1";"0";"1";"77";"76";"module.training_block2.exec-2928.GoNoGo2";;;;;;;;;;;;;;;;;;;;;;;;;;;;;;;;;;;"1249";"2014-07-27 01:28:32.763";"NST_correctLoc";"1";"0";"FINISHED";"LEFT";"success";"367";"0";"2014-07-27 01:28:31.513";"1";;;;;;;;;;;;;;;;;;;;;;;;;;;;;;;;;;;;;;;;;;;;;
"Quontr3lly";"1980";;"Windows 7";"Rachel's Experiment (D.T.)";"1.0";"2";"1";"1";"2";"1";"1";"2014-07-27 01:22:52.444";"2014-07-27 01:40:26.546";"1";"0";"1";"78";"77";"module.training_block2.exec-2928.GoNoGo2";;;;;;;;;;;;;;;;;;;;;;;;;;;;;;;;;;;"1249";"2014-07-27 01:28:35.313";"NST_correctLoc";"11";"0";"FINISHED";"LEFT";"success";"448";"0";"2014-07-27 01:28:34.063";"2";;;;;;;;;;;;;;;;;;;;;;;;;;;;;;;;;;;;;;;;;;;;;
"Quontr3lly";"1980";;"Windows 7";"Rachel's Experiment (D.T.)";"1.0";"2";"1";"1";"2";"1";"1";"2014-07-27 01:22:52.444";"2014-07-27 01:40:26.546";"1";"0";"1";"79";"78";"module.training_block2.exec-2928.GoNoGo2";;;;;;;;;;;;;;;;;;;;;;;;;;;;;;;;;;;"1249";"2014-07-27 01:28:37.862";"NST_correctLoc";"4";"0";"FINISHED";"LEFT";"success";"420";"0";"2014-07-27 01:28:36.612";"1";;;;;;;;;;;;;;;;;;;;;;;;;;;;;;;;;;;;;;;;;;;;;
"Quontr3lly";"1980";;"Windows 7";"Rachel's Experiment (D.T.)";"1.0";"2";"1";"1";"2";"1";"1";"2014-07-27 01:22:52.444";"2014-07-27 01:40:26.546";"1";"0";"1";"80";"79";"module.training_block2.exec-2928.GoNoGo2";;;;;;;;;;;;;;;;;;;;;;;;;;;;;;;;;;;"1249";"2014-07-27 01:28:40.413";"NST_correctLoc";"14";"0";"FINISHED";"LEFT";"success";"516";"0";"2014-07-27 01:28:39.163";"2";;;;;;;;;;;;;;;;;;;;;;;;;;;;;;;;;;;;;;;;;;;;;
"Quontr3lly";"1980";;"Windows 7";"Rachel's Experiment (D.T.)";"1.0";"2";"1";"1";"2";"1";"1";"2014-07-27 01:22:52.444";"2014-07-27 01:40:26.546";"1";"0";"1";"81";"80";"module.training_block2.exec-2928.GoNoGo2";;;;;;;;;;;;;;;;;;;;;;;;;;;;;;;;;;;"1249";"2014-07-27 01:28:42.964";"NST_correctLoc";"6";"0";"FINISHED";"LEFT";"success";"428";"0";"2014-07-27 01:28:41.714";"1";;;;;;;;;;;;;;;;;;;;;;;;;;;;;;;;;;;;;;;;;;;;;
"Quontr3lly";"1980";;"Windows 7";"Rachel's Experiment (D.T.)";"1.0";"2";"1";"1";"2";"1";"1";"2014-07-27 01:22:52.444";"2014-07-27 01:40:26.546";"1";"0";"1";"82";"81";"module.training_block2.exec-2928.GoNoGo2";;;;;;;;;;;;;;;;;;;;;;;;;;;;;;;;;;;"1250";"2014-07-27 01:28:45.515";"NST_correctLoc";"13";"1";"FINISHED";"RIGHT";"success";"399";"0";"2014-07-27 01:28:44.265";"2";;;;;;;;;;;;;;;;;;;;;;;;;;;;;;;;;;;;;;;;;;;;;
"Quontr3lly";"1980";;"Windows 7";"Rachel's Experiment (D.T.)";"1.0";"2";"1";"1";"2";"1";"1";"2014-07-27 01:22:52.444";"2014-07-27 01:40:26.546";"1";"0";"1";"83";"82";"module.training_block2.exec-2928.GoNoGo2";;;;;;;;;;;;;;;;;;;;;;;;;;;;;;;;;;;"1249";"2014-07-27 01:28:48.064";"NST_correctLoc";"12";"1";"FINISHED";"RIGHT";"success";"506";"0";"2014-07-27 01:28:46.814";"2";;;;;;;;;;;;;;;;;;;;;;;;;;;;;;;;;;;;;;;;;;;;;
"Quontr3lly";"1980";;"Windows 7";"Rachel's Experiment (D.T.)";"1.0";"2";"1";"1";"2";"1";"1";"2014-07-27 01:22:52.444";"2014-07-27 01:40:26.546";"1";"0";"1";"84";"83";"module.training_block2.exec-2928.GoNoGo2";;;;;;;;;;;;;;;;;;;;;;;;;;;;;;;;;;;"1249";"2014-07-27 01:28:50.614";"NST_correctLoc";"24";"1";"FINISHED";"RIGHT";"success";"459";"0";"2014-07-27 01:28:49.364";"3";;;;;;;;;;;;;;;;;;;;;;;;;;;;;;;;;;;;;;;;;;;;;
"Quontr3lly";"1980";;"Windows 7";"Rachel's Experiment (D.T.)";"1.0";"2";"1";"1";"2";"1";"1";"2014-07-27 01:22:52.444";"2014-07-27 01:40:26.546";"1";"0";"1";"85";"84";"module.training_block2.exec-2928.GoNoGo2";;;;;;;;;;;;;;;;;;;;;;;;;;;;;;;;;;;"1249";"2014-07-27 01:28:53.164";"NST_correctLoc";"2";"1";"FINISHED";"RIGHT";"success";"477";"0";"2014-07-27 01:28:51.914";"1";;;;;;;;;;;;;;;;;;;;;;;;;;;;;;;;;;;;;;;;;;;;;
"Quontr3lly";"1980";;"Windows 7";"Rachel's Experiment (D.T.)";"1.0";"2";"1";"1";"2";"1";"1";"2014-07-27 01:22:52.444";"2014-07-27 01:40:26.546";"1";"0";"1";"86";"85";"module.training_block2.exec-2928.GoNoGo2";;;;;;;;;;;;;;;;;;;;;;;;;;;;;;;;;;;"1249";"2014-07-27 01:28:55.713";"NST_correctLoc";"20";"1";"FINISHED";"RIGHT";"success";"415";"0";"2014-07-27 01:28:54.463";"3";;;;;;;;;;;;;;;;;;;;;;;;;;;;;;;;;;;;;;;;;;;;;
"Quontr3lly";"1980";;"Windows 7";"Rachel's Experiment (D.T.)";"1.0";"2";"1";"1";"2";"1";"1";"2014-07-27 01:22:52.444";"2014-07-27 01:40:26.546";"1";"0";"1";"87";"86";"module.training_block2.exec-2928.GoNoGo2";;;;;;;;;;;;;;;;;;;;;;;;;;;;;;;;;;;"1249";"2014-07-27 01:28:58.264";"NST_correctLoc";"19";"1";"FINISHED";"RIGHT";"success";"443";"0";"2014-07-27 01:28:57.013";"3";;;;;;;;;;;;;;;;;;;;;;;;;;;;;;;;;;;;;;;;;;;;;
"Quontr3lly";"1980";;"Windows 7";"Rachel's Experiment (D.T.)";"1.0";"2";"1";"1";"2";"1";"1";"2014-07-27 01:22:52.444";"2014-07-27 01:40:26.546";"1";"0";"1";"88";"87";"module.training_block3.exec-2942.GoNoGo3";;;;;;;;;;;;;;;;;;;;;;;;;;;;;;;;;;;;;;;;;;;;;;;"1249";"2014-07-27 01:29:10.051";"NST_correctLoc";"25";"0";"FINISHED";"LEFT";"success";"479";"0";"2014-07-27 01:29:08.801";"3";;;;;;;;;;;;;;;;;;;;;;;;;;;;;;;;;
"Quontr3lly";"1980";;"Windows 7";"Rachel's Experiment (D.T.)";"1.0";"2";"1";"1";"2";"1";"1";"2014-07-27 01:22:52.444";"2014-07-27 01:40:26.546";"1";"0";"1";"89";"88";"module.training_block3.exec-2942.GoNoGo3";;;;;;;;;;;;;;;;;;;;;;;;;;;;;;;;;;;;;;;;;;;;;;;"1249";"2014-07-27 01:29:12.596";"NST_correctLoc";"24";"0";"FINISHED";"LEFT";"success";"462";"0";"2014-07-27 01:29:11.346";"3";;;;;;;;;;;;;;;;;;;;;;;;;;;;;;;;;
"Quontr3lly";"1980";;"Windows 7";"Rachel's Experiment (D.T.)";"1.0";"2";"1";"1";"2";"1";"1";"2014-07-27 01:22:52.444";"2014-07-27 01:40:26.546";"1";"0";"1";"90";"89";"module.training_block3.exec-2942.GoNoGo3";;;;;;;;;;;;;;;;;;;;;;;;;;;;;;;;;;;;;;;;;;;;;;;"1249";"2014-07-27 01:29:15.148";"NST_correctLoc";"16";"0";"FINISHED";"LEFT";"success";"419";"0";"2014-07-27 01:29:13.898";"2";;;;;;;;;;;;;;;;;;;;;;;;;;;;;;;;;
"Quontr3lly";"1980";;"Windows 7";"Rachel's Experiment (D.T.)";"1.0";"2";"1";"1";"2";"1";"1";"2014-07-27 01:22:52.444";"2014-07-27 01:40:26.546";"1";"0";"1";"91";"90";"module.training_block3.exec-2942.GoNoGo3";;;;;;;;;;;;;;;;;;;;;;;;;;;;;;;;;;;;;;;;;;;;;;;"1249";"2014-07-27 01:29:17.698";"NST_correctLoc";"0";"0";"FINISHED";"LEFT";"success";"384";"0";"2014-07-27 01:29:16.448";"1";;;;;;;;;;;;;;;;;;;;;;;;;;;;;;;;;
"Quontr3lly";"1980";;"Windows 7";"Rachel's Experiment (D.T.)";"1.0";"2";"1";"1";"2";"1";"1";"2014-07-27 01:22:52.444";"2014-07-27 01:40:26.546";"1";"0";"1";"92";"91";"module.training_block3.exec-2942.GoNoGo3";;;;;;;;;;;;;;;;;;;;;;;;;;;;;;;;;;;;;;;;;;;;;;;"1249";"2014-07-27 01:29:20.248";"NST_correctLoc";"29";"0";"FINISHED";"LEFT";"success";"433";"0";"2014-07-27 01:29:18.998";"3";;;;;;;;;;;;;;;;;;;;;;;;;;;;;;;;;
"Quontr3lly";"1980";;"Windows 7";"Rachel's Experiment (D.T.)";"1.0";"2";"1";"1";"2";"1";"1";"2014-07-27 01:22:52.444";"2014-07-27 01:40:26.546";"1";"0";"1";"93";"92";"module.training_block3.exec-2942.GoNoGo3";;;;;;;;;;;;;;;;;;;;;;;;;;;;;;;;;;;;;;;;;;;;;;;"1249";"2014-07-27 01:29:22.798";"NST_correctLoc";"30";"0";"FINISHED";"LEFT";"success";"570";"0";"2014-07-27 01:29:21.548";"3";;;;;;;;;;;;;;;;;;;;;;;;;;;;;;;;;
"Quontr3lly";"1980";;"Windows 7";"Rachel's Experiment (D.T.)";"1.0";"2";"1";"1";"2";"1";"1";"2014-07-27 01:22:52.444";"2014-07-27 01:40:26.546";"1";"0";"1";"94";"93";"module.training_block3.exec-2942.GoNoGo3";;;;;;;;;;;;;;;;;;;;;;;;;;;;;;;;;;;;;;;;;;;;;;;"1249";"2014-07-27 01:29:25.348";"NST_correctLoc";"19";"1";"FINISHED";"RIGHT";"success";"614";"0";"2014-07-27 01:29:24.098";"3";;;;;;;;;;;;;;;;;;;;;;;;;;;;;;;;;
"Quontr3lly";"1980";;"Windows 7";"Rachel's Experiment (D.T.)";"1.0";"2";"1";"1";"2";"1";"1";"2014-07-27 01:22:52.444";"2014-07-27 01:40:26.546";"1";"0";"1";"95";"94";"module.training_block3.exec-2942.GoNoGo3";;;;;;;;;;;;;;;;;;;;;;;;;;;;;;;;;;;;;;;;;;;;;;;"1249";"2014-07-27 01:29:27.898";"NST_correctLoc";"15";"1";"FINISHED";"RIGHT";"success";"503";"0";"2014-07-27 01:29:26.648";"2";;;;;;;;;;;;;;;;;;;;;;;;;;;;;;;;;
"Quontr3lly";"1980";;"Windows 7";"Rachel's Experiment (D.T.)";"1.0";"2";"1";"1";"2";"1";"1";"2014-07-27 01:22:52.444";"2014-07-27 01:40:26.546";"1";"0";"1";"96";"95";"module.training_block3.exec-2942.GoNoGo3";;;;;;;;;;;;;;;;;;;;;;;;;;;;;;;;;;;;;;;;;;;;;;;"1249";"2014-07-27 01:29:30.448";"NST_correctLoc";"34";"1";"FINISHED";"RIGHT";"success";"626";"0";"2014-07-27 01:29:29.198";"3";;;;;;;;;;;;;;;;;;;;;;;;;;;;;;;;;
"Quontr3lly";"1980";;"Windows 7";"Rachel's Experiment (D.T.)";"1.0";"2";"1";"1";"2";"1";"1";"2014-07-27 01:22:52.444";"2014-07-27 01:40:26.546";"1";"0";"1";"97";"96";"module.training_block3.exec-2942.GoNoGo3";;;;;;;;;;;;;;;;;;;;;;;;;;;;;;;;;;;;;;;;;;;;;;;"1249";"2014-07-27 01:29:32.998";"NST_correctLoc";"14";"1";"FINISHED";"RIGHT";"success";"658";"0";"2014-07-27 01:29:31.748";"2";;;;;;;;;;;;;;;;;;;;;;;;;;;;;;;;;
"Quontr3lly";"1980";;"Windows 7";"Rachel's Experiment (D.T.)";"1.0";"2";"1";"1";"2";"1";"1";"2014-07-27 01:22:52.444";"2014-07-27 01:40:26.546";"1";"0";"1";"98";"97";"module.training_block3.exec-2942.GoNoGo3";;;;;;;;;;;;;;;;;;;;;;;;;;;;;;;;;;;;;;;;;;;;;;;"1249";"2014-07-27 01:29:35.548";"NST_correctLoc";"23";"1";"FINISHED";"RIGHT";"success";"782";"0";"2014-07-27 01:29:34.298";"3";;;;;;;;;;;;;;;;;;;;;;;;;;;;;;;;;
"Quontr3lly";"1980";;"Windows 7";"Rachel's Experiment (D.T.)";"1.0";"2";"1";"1";"2";"1";"1";"2014-07-27 01:22:52.444";"2014-07-27 01:40:26.546";"1";"0";"1";"99";"98";"module.training_block3.exec-2942.GoNoGo3";;;;;;;;;;;;;;;;;;;;;;;;;;;;;;;;;;;;;;;;;;;;;;;"1249";"2014-07-27 01:29:38.099";"NST_correctLoc";"33";"1";"FINISHED";"RIGHT";"success";"861";"0";"2014-07-27 01:29:36.849";"3";;;;;;;;;;;;;;;;;;;;;;;;;;;;;;;;;
"Quontr3lly";"1980";;"Windows 7";"Rachel's Experiment (D.T.)";"1.0";"2";"1";"1";"2";"1";"1";"2014-07-27 01:22:52.444";"2014-07-27 01:40:26.546";"1";"0";"1";"100";"99";"module.training_block3.exec-2942.GoNoGo3";;;;;;;;;;;;;;;;;;;;;;;;;;;;;;;;;;;;;;;;;;;;;;;"1249";"2014-07-27 01:29:40.649";"NST_correctLoc";"8";"1";"FINISHED";"RIGHT";"success";"833";"0";"2014-07-27 01:29:39.399";"1";;;;;;;;;;;;;;;;;;;;;;;;;;;;;;;;;
"Quontr3lly";"1980";;"Windows 7";"Rachel's Experiment (D.T.)";"1.0";"2";"1";"1";"2";"1";"1";"2014-07-27 01:22:52.444";"2014-07-27 01:40:26.546";"1";"0";"1";"101";"100";"module.training_block3.exec-2942.GoNoGo3";;;;;;;;;;;;;;;;;;;;;;;;;;;;;;;;;;;;;;;;;;;;;;;"1249";"2014-07-27 01:29:43.199";"NST_correctLoc";"21";"0";"FINISHED";"LEFT";"success";"506";"0";"2014-07-27 01:29:41.949";"3";;;;;;;;;;;;;;;;;;;;;;;;;;;;;;;;;
"Quontr3lly";"1980";;"Windows 7";"Rachel's Experiment (D.T.)";"1.0";"2";"1";"1";"2";"1";"1";"2014-07-27 01:22:52.444";"2014-07-27 01:40:26.546";"1";"0";"1";"102";"101";"module.training_block3.exec-2942.GoNoGo3";;;;;;;;;;;;;;;;;;;;;;;;;;;;;;;;;;;;;;;;;;;;;;;"1249";"2014-07-27 01:29:45.749";"NST_correctLoc";"31";"0";"FINISHED";"LEFT";"success";"468";"0";"2014-07-27 01:29:44.499";"3";;;;;;;;;;;;;;;;;;;;;;;;;;;;;;;;;
"Quontr3lly";"1980";;"Windows 7";"Rachel's Experiment (D.T.)";"1.0";"2";"1";"1";"2";"1";"1";"2014-07-27 01:22:52.444";"2014-07-27 01:40:26.546";"1";"0";"1";"103";"102";"module.training_block3.exec-2942.GoNoGo3";;;;;;;;;;;;;;;;;;;;;;;;;;;;;;;;;;;;;;;;;;;;;;;"1249";"2014-07-27 01:29:48.299";"NST_correctLoc";"22";"0";"FINISHED";"LEFT";"success";"621";"0";"2014-07-27 01:29:47.049";"3";;;;;;;;;;;;;;;;;;;;;;;;;;;;;;;;;
"Quontr3lly";"1980";;"Windows 7";"Rachel's Experiment (D.T.)";"1.0";"2";"1";"1";"2";"1";"1";"2014-07-27 01:22:52.444";"2014-07-27 01:40:26.546";"1";"0";"1";"104";"103";"module.training_block3.exec-2942.GoNoGo3";;;;;;;;;;;;;;;;;;;;;;;;;;;;;;;;;;;;;;;;;;;;;;;"1249";"2014-07-27 01:29:50.850";"NST_correctLoc";"7";"1";"FINISHED";"RIGHT";"success";"672";"0";"2014-07-27 01:29:49.599";"1";;;;;;;;;;;;;;;;;;;;;;;;;;;;;;;;;
"Quontr3lly";"1980";;"Windows 7";"Rachel's Experiment (D.T.)";"1.0";"2";"1";"1";"2";"1";"1";"2014-07-27 01:22:52.444";"2014-07-27 01:40:26.546";"1";"0";"1";"105";"104";"module.training_block3.exec-2942.GoNoGo3";;;;;;;;;;;;;;;;;;;;;;;;;;;;;;;;;;;;;;;;;;;;;;;"1249";"2014-07-27 01:29:53.398";"NST_correctLoc";"26";"0";"FINISHED";"LEFT";"success";"532";"0";"2014-07-27 01:29:52.148";"3";;;;;;;;;;;;;;;;;;;;;;;;;;;;;;;;;
"Quontr3lly";"1980";;"Windows 7";"Rachel's Experiment (D.T.)";"1.0";"2";"1";"1";"2";"1";"1";"2014-07-27 01:22:52.444";"2014-07-27 01:40:26.546";"1";"0";"1";"106";"105";"module.training_block3.exec-2942.GoNoGo3";;;;;;;;;;;;;;;;;;;;;;;;;;;;;;;;;;;;;;;;;;;;;;;"1249";"2014-07-27 01:29:55.949";"NST_correctLoc";"9";"0";"FINISHED";"LEFT";"success";"620";"0";"2014-07-27 01:29:54.699";"2";;;;;;;;;;;;;;;;;;;;;;;;;;;;;;;;;
"Quontr3lly";"1980";;"Windows 7";"Rachel's Experiment (D.T.)";"1.0";"2";"1";"1";"2";"1";"1";"2014-07-27 01:22:52.444";"2014-07-27 01:40:26.546";"1";"0";"1";"107";"106";"module.training_block3.exec-2942.GoNoGo3";;;;;;;;;;;;;;;;;;;;;;;;;;;;;;;;;;;;;;;;;;;;;;;"1249";"2014-07-27 01:29:58.500";"NST_correctLoc";"17";"0";"FINISHED";"LEFT";"success";"566";"0";"2014-07-27 01:29:57.250";"2";;;;;;;;;;;;;;;;;;;;;;;;;;;;;;;;;
"Quontr3lly";"1980";;"Windows 7";"Rachel's Experiment (D.T.)";"1.0";"2";"1";"1";"2";"1";"1";"2014-07-27 01:22:52.444";"2014-07-27 01:40:26.546";"1";"0";"1";"108";"107";"module.training_block3.exec-2942.GoNoGo3";;;;;;;;;;;;;;;;;;;;;;;;;;;;;;;;;;;;;;;;;;;;;;;"1249";"2014-07-27 01:30:01.049";"NST_correctLoc";"18";"1";"FINISHED";"RIGHT";"success";"569";"0";"2014-07-27 01:29:59.799";"3";;;;;;;;;;;;;;;;;;;;;;;;;;;;;;;;;
"Quontr3lly";"1980";;"Windows 7";"Rachel's Experiment (D.T.)";"1.0";"2";"1";"1";"2";"1";"1";"2014-07-27 01:22:52.444";"2014-07-27 01:40:26.546";"1";"0";"1";"109";"108";"module.training_block3.exec-2942.GoNoGo3";;;;;;;;;;;;;;;;;;;;;;;;;;;;;;;;;;;;;;;;;;;;;;;"1249";"2014-07-27 01:30:03.599";"NST_correctLoc";"13";"1";"FINISHED";"RIGHT";"success";"682";"0";"2014-07-27 01:30:02.349";"2";;;;;;;;;;;;;;;;;;;;;;;;;;;;;;;;;
"Quontr3lly";"1980";;"Windows 7";"Rachel's Experiment (D.T.)";"1.0";"2";"1";"1";"2";"1";"1";"2014-07-27 01:22:52.444";"2014-07-27 01:40:26.546";"1";"0";"1";"110";"109";"module.training_block3.exec-2942.GoNoGo3";;;;;;;;;;;;;;;;;;;;;;;;;;;;;;;;;;;;;;;;;;;;;;;"1249";"2014-07-27 01:30:06.149";"NST_correctLoc";"35";"0";"FINISHED";"LEFT";"success";"755";"0";"2014-07-27 01:30:04.899";"3";;;;;;;;;;;;;;;;;;;;;;;;;;;;;;;;;
"Quontr3lly";"1980";;"Windows 7";"Rachel's Experiment (D.T.)";"1.0";"2";"1";"1";"2";"1";"1";"2014-07-27 01:22:52.444";"2014-07-27 01:40:26.546";"1";"0";"1";"111";"110";"module.training_block3.exec-2942.GoNoGo3";;;;;;;;;;;;;;;;;;;;;;;;;;;;;;;;;;;;;;;;;;;;;;;"1249";"2014-07-27 01:30:08.700";"NST_correctLoc";"27";"1";"FINISHED";"RIGHT";"success";"526";"0";"2014-07-27 01:30:07.449";"3";;;;;;;;;;;;;;;;;;;;;;;;;;;;;;;;;
"Quontr3lly";"1980";;"Windows 7";"Rachel's Experiment (D.T.)";"1.0";"2";"1";"1";"2";"1";"1";"2014-07-27 01:22:52.444";"2014-07-27 01:40:26.546";"1";"0";"1";"112";"111";"module.training_block3.exec-2942.GoNoGo3";;;;;;;;;;;;;;;;;;;;;;;;;;;;;;;;;;;;;;;;;;;;;;;"1249";"2014-07-27 01:30:11.250";"NST_correctLoc";"12";"1";"FINISHED";"RIGHT";"success";"480";"0";"2014-07-27 01:30:10.000";"2";;;;;;;;;;;;;;;;;;;;;;;;;;;;;;;;;
"Quontr3lly";"1980";;"Windows 7";"Rachel's Experiment (D.T.)";"1.0";"2";"1";"1";"2";"1";"1";"2014-07-27 01:22:52.444";"2014-07-27 01:40:26.546";"1";"0";"1";"113";"112";"module.training_block3.exec-2942.GoNoGo3";;;;;;;;;;;;;;;;;;;;;;;;;;;;;;;;;;;;;;;;;;;;;;;"1249";"2014-07-27 01:30:13.800";"NST_correctLoc";"32";"1";"FINISHED";"RIGHT";"success";"656";"0";"2014-07-27 01:30:12.550";"3";;;;;;;;;;;;;;;;;;;;;;;;;;;;;;;;;
"Quontr3lly";"1980";;"Windows 7";"Rachel's Experiment (D.T.)";"1.0";"2";"1";"1";"2";"1";"1";"2014-07-27 01:22:52.444";"2014-07-27 01:40:26.546";"1";"0";"1";"114";"113";"module.training_block3.exec-2942.GoNoGo3";;;;;;;;;;;;;;;;;;;;;;;;;;;;;;;;;;;;;;;;;;;;;;;"1249";"2014-07-27 01:30:16.350";"NST_correctLoc";"28";"0";"FINISHED";"LEFT";"success";"546";"0";"2014-07-27 01:30:15.100";"3";;;;;;;;;;;;;;;;;;;;;;;;;;;;;;;;;
"Quontr3lly";"1980";;"Windows 7";"Rachel's Experiment (D.T.)";"1.0";"2";"1";"1";"2";"1";"1";"2014-07-27 01:22:52.444";"2014-07-27 01:40:26.546";"1";"0";"1";"115";"114";"module.training_block3.exec-2942.GoNoGo3";;;;;;;;;;;;;;;;;;;;;;;;;;;;;;;;;;;;;;;;;;;;;;;"1249";"2014-07-27 01:30:18.899";"NST_correctLoc";"5";"0";"FINISHED";"LEFT";"success";"511";"0";"2014-07-27 01:30:17.649";"1";;;;;;;;;;;;;;;;;;;;;;;;;;;;;;;;;
"Quontr3lly";"1980";;"Windows 7";"Rachel's Experiment (D.T.)";"1.0";"2";"1";"1";"2";"1";"1";"2014-07-27 01:22:52.444";"2014-07-27 01:40:26.546";"1";"0";"1";"116";"115";"module.training_block3.exec-2942.GoNoGo3";;;;;;;;;;;;;;;;;;;;;;;;;;;;;;;;;;;;;;;;;;;;;;;"1249";"2014-07-27 01:30:21.450";"NST_correctLoc";"6";"0";"FINISHED";"LEFT";"success";"432";"0";"2014-07-27 01:30:20.200";"1";;;;;;;;;;;;;;;;;;;;;;;;;;;;;;;;;
"Quontr3lly";"1980";;"Windows 7";"Rachel's Experiment (D.T.)";"1.0";"2";"1";"1";"2";"1";"1";"2014-07-27 01:22:52.444";"2014-07-27 01:40:26.546";"1";"0";"1";"117";"116";"module.training_block3.exec-2942.GoNoGo3";;;;;;;;;;;;;;;;;;;;;;;;;;;;;;;;;;;;;;;;;;;;;;;"1249";"2014-07-27 01:30:24.000";"NST_correctLoc";"4";"0";"FINISHED";"LEFT";"success";"504";"0";"2014-07-27 01:30:22.750";"1";;;;;;;;;;;;;;;;;;;;;;;;;;;;;;;;;
"Quontr3lly";"1980";;"Windows 7";"Rachel's Experiment (D.T.)";"1.0";"2";"1";"1";"2";"1";"1";"2014-07-27 01:22:52.444";"2014-07-27 01:40:26.546";"1";"0";"1";"118";"117";"module.training_block3.exec-2942.GoNoGo3";;;;;;;;;;;;;;;;;;;;;;;;;;;;;;;;;;;;;;;;;;;;;;;"1249";"2014-07-27 01:30:26.551";"NST_correctLoc";"11";"1";"FINISHED";"RIGHT";"success";"587";"0";"2014-07-27 01:30:25.300";"2";;;;;;;;;;;;;;;;;;;;;;;;;;;;;;;;;
"Quontr3lly";"1980";;"Windows 7";"Rachel's Experiment (D.T.)";"1.0";"2";"1";"1";"2";"1";"1";"2014-07-27 01:22:52.444";"2014-07-27 01:40:26.546";"1";"0";"1";"119";"118";"module.training_block3.exec-2942.GoNoGo3";;;;;;;;;;;;;;;;;;;;;;;;;;;;;;;;;;;;;;;;;;;;;;;"1249";"2014-07-27 01:30:29.101";"NST_correctLoc";"2";"1";"FINISHED";"RIGHT";"success";"605";"0";"2014-07-27 01:30:27.851";"1";;;;;;;;;;;;;;;;;;;;;;;;;;;;;;;;;
"Quontr3lly";"1980";;"Windows 7";"Rachel's Experiment (D.T.)";"1.0";"2";"1";"1";"2";"1";"1";"2014-07-27 01:22:52.444";"2014-07-27 01:40:26.546";"1";"0";"1";"120";"119";"module.training_block3.exec-2942.GoNoGo3";;;;;;;;;;;;;;;;;;;;;;;;;;;;;;;;;;;;;;;;;;;;;;;"1249";"2014-07-27 01:30:31.651";"NST_correctLoc";"1";"1";"FINISHED";"RIGHT";"success";"486";"0";"2014-07-27 01:30:30.401";"1";;;;;;;;;;;;;;;;;;;;;;;;;;;;;;;;;
"Quontr3lly";"1980";;"Windows 7";"Rachel's Experiment (D.T.)";"1.0";"2";"1";"1";"2";"1";"1";"2014-07-27 01:22:52.444";"2014-07-27 01:40:26.546";"1";"0";"1";"121";"120";"module.training_block3.exec-2942.GoNoGo3";;;;;;;;;;;;;;;;;;;;;;;;;;;;;;;;;;;;;;;;;;;;;;;"1249";"2014-07-27 01:30:34.201";"NST_correctLoc";"20";"0";"FINISHED";"LEFT";"success";"536";"0";"2014-07-27 01:30:32.951";"3";;;;;;;;;;;;;;;;;;;;;;;;;;;;;;;;;
"Quontr3lly";"1980";;"Windows 7";"Rachel's Experiment (D.T.)";"1.0";"2";"1";"1";"2";"1";"1";"2014-07-27 01:22:52.444";"2014-07-27 01:40:26.546";"1";"0";"1";"122";"121";"module.training_block3.exec-2942.GoNoGo3";;;;;;;;;;;;;;;;;;;;;;;;;;;;;;;;;;;;;;;;;;;;;;;"1249";"2014-07-27 01:30:36.750";"NST_correctLoc";"10";"0";"FINISHED";"LEFT";"success";"523";"0";"2014-07-27 01:30:35.500";"2";;;;;;;;;;;;;;;;;;;;;;;;;;;;;;;;;
"Quontr3lly";"1980";;"Windows 7";"Rachel's Experiment (D.T.)";"1.0";"2";"1";"1";"2";"1";"1";"2014-07-27 01:22:52.444";"2014-07-27 01:40:26.546";"1";"0";"1";"123";"122";"module.training_block3.exec-2942.GoNoGo3";;;;;;;;;;;;;;;;;;;;;;;;;;;;;;;;;;;;;;;;;;;;;;;"1249";"2014-07-27 01:30:39.300";"NST_correctLoc";"3";"1";"FINISHED";"RIGHT";"success";"589";"0";"2014-07-27 01:30:38.050";"1";;;;;;;;;;;;;;;;;;;;;;;;;;;;;;;;;
"Quontr3lly";"1980";;"Windows 7";"Rachel's Experiment (D.T.)";"1.0";"2";"1";"1";"2";"1";"1";"2014-07-27 01:22:52.444";"2014-07-27 01:40:26.546";"1";"0";"1";"124";"123";"module.training_block4.exec-8651.GoNoGo4";;;;;;;;;;;;;;;;;;;;;;;;;;;;;;;;;;;;;;;;;;;;;;;;;;;;;;;;;;;"1249";"2014-07-27 01:30:54.213";"NST_correctLoc";"7";"0";"FINISHED";"LEFT";"success";"548";"0";"2014-07-27 01:30:52.963";"1";;;;;;;;;;;;;;;;;;;;;
"Quontr3lly";"1980";;"Windows 7";"Rachel's Experiment (D.T.)";"1.0";"2";"1";"1";"2";"1";"1";"2014-07-27 01:22:52.444";"2014-07-27 01:40:26.546";"1";"0";"1";"125";"124";"module.training_block4.exec-8651.GoNoGo4";;;;;;;;;;;;;;;;;;;;;;;;;;;;;;;;;;;;;;;;;;;;;;;;;;;;;;;;;;;"1249";"2014-07-27 01:30:56.750";"NST_correctLoc";"24";"0";"FINISHED";"LEFT";"success";"468";"0";"2014-07-27 01:30:55.500";"3";;;;;;;;;;;;;;;;;;;;;
"Quontr3lly";"1980";;"Windows 7";"Rachel's Experiment (D.T.)";"1.0";"2";"1";"1";"2";"1";"1";"2014-07-27 01:22:52.444";"2014-07-27 01:40:26.546";"1";"0";"1";"126";"125";"module.training_block4.exec-8651.GoNoGo4";;;;;;;;;;;;;;;;;;;;;;;;;;;;;;;;;;;;;;;;;;;;;;;;;;;;;;;;;;;"1249";"2014-07-27 01:30:59.301";"NST_correctLoc";"22";"0";"FINISHED";"LEFT";"success";"517";"0";"2014-07-27 01:30:58.051";"3";;;;;;;;;;;;;;;;;;;;;
"Quontr3lly";"1980";;"Windows 7";"Rachel's Experiment (D.T.)";"1.0";"2";"1";"1";"2";"1";"1";"2014-07-27 01:22:52.444";"2014-07-27 01:40:26.546";"1";"0";"1";"127";"126";"module.training_block4.exec-8651.GoNoGo4";;;;;;;;;;;;;;;;;;;;;;;;;;;;;;;;;;;;;;;;;;;;;;;;;;;;;;;;;;;"1249";"2014-07-27 01:31:01.852";"NST_correctLoc";"32";"0";"FINISHED";"LEFT";"success";"453";"0";"2014-07-27 01:31:00.602";"3";;;;;;;;;;;;;;;;;;;;;
"Quontr3lly";"1980";;"Windows 7";"Rachel's Experiment (D.T.)";"1.0";"2";"1";"1";"2";"1";"1";"2014-07-27 01:22:52.444";"2014-07-27 01:40:26.546";"1";"0";"1";"128";"127";"module.training_block4.exec-8651.GoNoGo4";;;;;;;;;;;;;;;;;;;;;;;;;;;;;;;;;;;;;;;;;;;;;;;;;;;;;;;;;;;"1249";"2014-07-27 01:31:04.402";"NST_correctLoc";"6";"0";"FINISHED";"LEFT";"success";"489";"0";"2014-07-27 01:31:03.152";"1";;;;;;;;;;;;;;;;;;;;;
"Quontr3lly";"1980";;"Windows 7";"Rachel's Experiment (D.T.)";"1.0";"2";"1";"1";"2";"1";"1";"2014-07-27 01:22:52.444";"2014-07-27 01:40:26.546";"1";"0";"1";"129";"128";"module.training_block4.exec-8651.GoNoGo4";;;;;;;;;;;;;;;;;;;;;;;;;;;;;;;;;;;;;;;;;;;;;;;;;;;;;;;;;;;"1249";"2014-07-27 01:31:06.952";"NST_correctLoc";"14";"1";"FINISHED";"RIGHT";"success";"601";"0";"2014-07-27 01:31:05.702";"2";;;;;;;;;;;;;;;;;;;;;
"Quontr3lly";"1980";;"Windows 7";"Rachel's Experiment (D.T.)";"1.0";"2";"1";"1";"2";"1";"1";"2014-07-27 01:22:52.444";"2014-07-27 01:40:26.546";"1";"0";"1";"130";"129";"module.training_block4.exec-8651.GoNoGo4";;;;;;;;;;;;;;;;;;;;;;;;;;;;;;;;;;;;;;;;;;;;;;;;;;;;;;;;;;;"1249";"2014-07-27 01:31:09.502";"NST_correctLoc";"34";"1";"FINISHED";"RIGHT";"success";"570";"0";"2014-07-27 01:31:08.252";"3";;;;;;;;;;;;;;;;;;;;;
"Quontr3lly";"1980";;"Windows 7";"Rachel's Experiment (D.T.)";"1.0";"2";"1";"1";"2";"1";"1";"2014-07-27 01:22:52.444";"2014-07-27 01:40:26.546";"1";"0";"1";"131";"130";"module.training_block4.exec-8651.GoNoGo4";;;;;;;;;;;;;;;;;;;;;;;;;;;;;;;;;;;;;;;;;;;;;;;;;;;;;;;;;;;"1249";"2014-07-27 01:31:12.052";"NST_correctLoc";"9";"1";"FINISHED";"RIGHT";"success";"502";"0";"2014-07-27 01:31:10.802";"2";;;;;;;;;;;;;;;;;;;;;
"Quontr3lly";"1980";;"Windows 7";"Rachel's Experiment (D.T.)";"1.0";"2";"1";"1";"2";"1";"1";"2014-07-27 01:22:52.444";"2014-07-27 01:40:26.546";"1";"0";"1";"132";"131";"module.training_block4.exec-8651.GoNoGo4";;;;;;;;;;;;;;;;;;;;;;;;;;;;;;;;;;;;;;;;;;;;;;;;;;;;;;;;;;;"1249";"2014-07-27 01:31:14.602";"NST_correctLoc";"2";"0";"FINISHED";"LEFT";"success";"471";"0";"2014-07-27 01:31:13.352";"1";;;;;;;;;;;;;;;;;;;;;
"Quontr3lly";"1980";;"Windows 7";"Rachel's Experiment (D.T.)";"1.0";"2";"1";"1";"2";"1";"1";"2014-07-27 01:22:52.444";"2014-07-27 01:40:26.546";"1";"0";"1";"133";"132";"module.training_block4.exec-8651.GoNoGo4";;;;;;;;;;;;;;;;;;;;;;;;;;;;;;;;;;;;;;;;;;;;;;;;;;;;;;;;;;;"1249";"2014-07-27 01:31:17.152";"NST_correctLoc";"33";"0";"FINISHED";"LEFT";"success";"498";"0";"2014-07-27 01:31:15.902";"3";;;;;;;;;;;;;;;;;;;;;
"Quontr3lly";"1980";;"Windows 7";"Rachel's Experiment (D.T.)";"1.0";"2";"1";"1";"2";"1";"1";"2014-07-27 01:22:52.444";"2014-07-27 01:40:26.546";"1";"0";"1";"134";"133";"module.training_block4.exec-8651.GoNoGo4";;;;;;;;;;;;;;;;;;;;;;;;;;;;;;;;;;;;;;;;;;;;;;;;;;;;;;;;;;;"1249";"2014-07-27 01:31:19.703";"NST_correctLoc";"35";"0";"FINISHED";"LEFT";"success";"419";"0";"2014-07-27 01:31:18.453";"3";;;;;;;;;;;;;;;;;;;;;
"Quontr3lly";"1980";;"Windows 7";"Rachel's Experiment (D.T.)";"1.0";"2";"1";"1";"2";"1";"1";"2014-07-27 01:22:52.444";"2014-07-27 01:40:26.546";"1";"0";"1";"135";"134";"module.training_block4.exec-8651.GoNoGo4";;;;;;;;;;;;;;;;;;;;;;;;;;;;;;;;;;;;;;;;;;;;;;;;;;;;;;;;;;;"1249";"2014-07-27 01:31:22.252";"NST_correctLoc";"3";"1";"FINISHED";"RIGHT";"success";"550";"0";"2014-07-27 01:31:21.002";"1";;;;;;;;;;;;;;;;;;;;;
"Quontr3lly";"1980";;"Windows 7";"Rachel's Experiment (D.T.)";"1.0";"2";"1";"1";"2";"1";"1";"2014-07-27 01:22:52.444";"2014-07-27 01:40:26.546";"1";"0";"1";"136";"135";"module.training_block4.exec-8651.GoNoGo4";;;;;;;;;;;;;;;;;;;;;;;;;;;;;;;;;;;;;;;;;;;;;;;;;;;;;;;;;;;"1249";"2014-07-27 01:31:24.803";"NST_correctLoc";"17";"1";"FINISHED";"RIGHT";"success";"511";"0";"2014-07-27 01:31:23.553";"2";;;;;;;;;;;;;;;;;;;;;
"Quontr3lly";"1980";;"Windows 7";"Rachel's Experiment (D.T.)";"1.0";"2";"1";"1";"2";"1";"1";"2014-07-27 01:22:52.444";"2014-07-27 01:40:26.546";"1";"0";"1";"137";"136";"module.training_block4.exec-8651.GoNoGo4";;;;;;;;;;;;;;;;;;;;;;;;;;;;;;;;;;;;;;;;;;;;;;;;;;;;;;;;;;;"1249";"2014-07-27 01:31:27.353";"NST_correctLoc";"16";"0";"FINISHED";"LEFT";"success";"536";"0";"2014-07-27 01:31:26.103";"2";;;;;;;;;;;;;;;;;;;;;
"Quontr3lly";"1980";;"Windows 7";"Rachel's Experiment (D.T.)";"1.0";"2";"1";"1";"2";"1";"1";"2014-07-27 01:22:52.444";"2014-07-27 01:40:26.546";"1";"0";"1";"138";"137";"module.training_block4.exec-8651.GoNoGo4";;;;;;;;;;;;;;;;;;;;;;;;;;;;;;;;;;;;;;;;;;;;;;;;;;;;;;;;;;;"1249";"2014-07-27 01:31:29.902";"NST_correctLoc";"31";"1";"FINISHED";"RIGHT";"success";"540";"0";"2014-07-27 01:31:28.652";"3";;;;;;;;;;;;;;;;;;;;;
"Quontr3lly";"1980";;"Windows 7";"Rachel's Experiment (D.T.)";"1.0";"2";"1";"1";"2";"1";"1";"2014-07-27 01:22:52.444";"2014-07-27 01:40:26.546";"1";"0";"1";"139";"138";"module.training_block4.exec-8651.GoNoGo4";;;;;;;;;;;;;;;;;;;;;;;;;;;;;;;;;;;;;;;;;;;;;;;;;;;;;;;;;;;"1249";"2014-07-27 01:31:32.452";"NST_correctLoc";"13";"0";"FINISHED";"LEFT";"success";"454";"0";"2014-07-27 01:31:31.202";"2";;;;;;;;;;;;;;;;;;;;;
"Quontr3lly";"1980";;"Windows 7";"Rachel's Experiment (D.T.)";"1.0";"2";"1";"1";"2";"1";"1";"2014-07-27 01:22:52.444";"2014-07-27 01:40:26.546";"1";"0";"1";"140";"139";"module.training_block4.exec-8651.GoNoGo4";;;;;;;;;;;;;;;;;;;;;;;;;;;;;;;;;;;;;;;;;;;;;;;;;;;;;;;;;;;"1249";"2014-07-27 01:31:35.002";"NST_correctLoc";"15";"1";"FINISHED";"RIGHT";"success";"448";"0";"2014-07-27 01:31:33.752";"2";;;;;;;;;;;;;;;;;;;;;
"Quontr3lly";"1980";;"Windows 7";"Rachel's Experiment (D.T.)";"1.0";"2";"1";"1";"2";"1";"1";"2014-07-27 01:22:52.444";"2014-07-27 01:40:26.546";"1";"0";"1";"141";"140";"module.training_block4.exec-8651.GoNoGo4";;;;;;;;;;;;;;;;;;;;;;;;;;;;;;;;;;;;;;;;;;;;;;;;;;;;;;;;;;;"1249";"2014-07-27 01:31:37.553";"NST_correctLoc";"12";"0";"FINISHED";"LEFT";"success";"416";"0";"2014-07-27 01:31:36.303";"2";;;;;;;;;;;;;;;;;;;;;
"Quontr3lly";"1980";;"Windows 7";"Rachel's Experiment (D.T.)";"1.0";"2";"1";"1";"2";"1";"1";"2014-07-27 01:22:52.444";"2014-07-27 01:40:26.546";"1";"0";"1";"142";"141";"module.training_block4.exec-8651.GoNoGo4";;;;;;;;;;;;;;;;;;;;;;;;;;;;;;;;;;;;;;;;;;;;;;;;;;;;;;;;;;;"1249";"2014-07-27 01:31:40.102";"NST_correctLoc";"10";"0";"FINISHED";"LEFT";"success";"460";"0";"2014-07-27 01:31:38.852";"2";;;;;;;;;;;;;;;;;;;;;
"Quontr3lly";"1980";;"Windows 7";"Rachel's Experiment (D.T.)";"1.0";"2";"1";"1";"2";"1";"1";"2014-07-27 01:22:52.444";"2014-07-27 01:40:26.546";"1";"0";"1";"143";"142";"module.training_block4.exec-8651.GoNoGo4";;;;;;;;;;;;;;;;;;;;;;;;;;;;;;;;;;;;;;;;;;;;;;;;;;;;;;;;;;;"1249";"2014-07-27 01:31:42.653";"NST_correctLoc";"26";"1";"FINISHED";"RIGHT";"success";"381";"0";"2014-07-27 01:31:41.403";"3";;;;;;;;;;;;;;;;;;;;;
"Quontr3lly";"1980";;"Windows 7";"Rachel's Experiment (D.T.)";"1.0";"2";"1";"1";"2";"1";"1";"2014-07-27 01:22:52.444";"2014-07-27 01:40:26.546";"1";"0";"1";"144";"143";"module.training_block4.exec-8651.GoNoGo4";;;;;;;;;;;;;;;;;;;;;;;;;;;;;;;;;;;;;;;;;;;;;;;;;;;;;;;;;;;"1249";"2014-07-27 01:31:45.203";"NST_correctLoc";"18";"0";"FINISHED";"LEFT";"success";"381";"0";"2014-07-27 01:31:43.953";"3";;;;;;;;;;;;;;;;;;;;;
"Quontr3lly";"1980";;"Windows 7";"Rachel's Experiment (D.T.)";"1.0";"2";"1";"1";"2";"1";"1";"2014-07-27 01:22:52.444";"2014-07-27 01:40:26.546";"1";"0";"1";"145";"144";"module.training_block4.exec-8651.GoNoGo4";;;;;;;;;;;;;;;;;;;;;;;;;;;;;;;;;;;;;;;;;;;;;;;;;;;;;;;;;;;"1249";"2014-07-27 01:31:47.753";"NST_correctLoc";"27";"1";"FINISHED";"RIGHT";"success";"927";"0";"2014-07-27 01:31:46.503";"3";;;;;;;;;;;;;;;;;;;;;
"Quontr3lly";"1980";;"Windows 7";"Rachel's Experiment (D.T.)";"1.0";"2";"1";"1";"2";"1";"1";"2014-07-27 01:22:52.444";"2014-07-27 01:40:26.546";"1";"0";"1";"146";"145";"module.training_block4.exec-8651.GoNoGo4";;;;;;;;;;;;;;;;;;;;;;;;;;;;;;;;;;;;;;;;;;;;;;;;;;;;;;;;;;;"1249";"2014-07-27 01:31:50.303";"NST_correctLoc";"1";"0";"FINISHED";"LEFT";"success";"538";"0";"2014-07-27 01:31:49.053";"1";;;;;;;;;;;;;;;;;;;;;
"Quontr3lly";"1980";;"Windows 7";"Rachel's Experiment (D.T.)";"1.0";"2";"1";"1";"2";"1";"1";"2014-07-27 01:22:52.444";"2014-07-27 01:40:26.546";"1";"0";"1";"147";"146";"module.training_block4.exec-8651.GoNoGo4";;;;;;;;;;;;;;;;;;;;;;;;;;;;;;;;;;;;;;;;;;;;;;;;;;;;;;;;;;;"1249";"2014-07-27 01:31:52.853";"NST_correctLoc";"19";"1";"FINISHED";"RIGHT";"success";"412";"0";"2014-07-27 01:31:51.603";"3";;;;;;;;;;;;;;;;;;;;;
"Quontr3lly";"1980";;"Windows 7";"Rachel's Experiment (D.T.)";"1.0";"2";"1";"1";"2";"1";"1";"2014-07-27 01:22:52.444";"2014-07-27 01:40:26.546";"1";"0";"1";"148";"147";"module.training_block4.exec-8651.GoNoGo4";;;;;;;;;;;;;;;;;;;;;;;;;;;;;;;;;;;;;;;;;;;;;;;;;;;;;;;;;;;"1249";"2014-07-27 01:31:55.404";"NST_correctLoc";"21";"1";"FINISHED";"RIGHT";"success";"534";"0";"2014-07-27 01:31:54.154";"3";;;;;;;;;;;;;;;;;;;;;
"Quontr3lly";"1980";;"Windows 7";"Rachel's Experiment (D.T.)";"1.0";"2";"1";"1";"2";"1";"1";"2014-07-27 01:22:52.444";"2014-07-27 01:40:26.546";"1";"0";"1";"149";"148";"module.training_block4.exec-8651.GoNoGo4";;;;;;;;;;;;;;;;;;;;;;;;;;;;;;;;;;;;;;;;;;;;;;;;;;;;;;;;;;;"1249";"2014-07-27 01:31:57.954";"NST_correctLoc";"30";"1";"FINISHED";"RIGHT";"success";"720";"0";"2014-07-27 01:31:56.704";"3";;;;;;;;;;;;;;;;;;;;;
"Quontr3lly";"1980";;"Windows 7";"Rachel's Experiment (D.T.)";"1.0";"2";"1";"1";"2";"1";"1";"2014-07-27 01:22:52.444";"2014-07-27 01:40:26.546";"1";"0";"1";"150";"149";"module.training_block4.exec-8651.GoNoGo4";;;;;;;;;;;;;;;;;;;;;;;;;;;;;;;;;;;;;;;;;;;;;;;;;;;;;;;;;;;"1249";"2014-07-27 01:32:00.504";"NST_correctLoc";"8";"1";"FINISHED";"RIGHT";"success";"592";"0";"2014-07-27 01:31:59.254";"1";;;;;;;;;;;;;;;;;;;;;
"Quontr3lly";"1980";;"Windows 7";"Rachel's Experiment (D.T.)";"1.0";"2";"1";"1";"2";"1";"1";"2014-07-27 01:22:52.444";"2014-07-27 01:40:26.546";"1";"0";"1";"151";"150";"module.training_block4.exec-8651.GoNoGo4";;;;;;;;;;;;;;;;;;;;;;;;;;;;;;;;;;;;;;;;;;;;;;;;;;;;;;;;;;;"1249";"2014-07-27 01:32:03.054";"NST_correctLoc";"29";"1";"FINISHED";"RIGHT";"success";"444";"0";"2014-07-27 01:32:01.804";"3";;;;;;;;;;;;;;;;;;;;;
"Quontr3lly";"1980";;"Windows 7";"Rachel's Experiment (D.T.)";"1.0";"2";"1";"1";"2";"1";"1";"2014-07-27 01:22:52.444";"2014-07-27 01:40:26.546";"1";"0";"1";"152";"151";"module.training_block4.exec-8651.GoNoGo4";;;;;;;;;;;;;;;;;;;;;;;;;;;;;;;;;;;;;;;;;;;;;;;;;;;;;;;;;;;"1249";"2014-07-27 01:32:05.603";"NST_correctLoc";"28";"1";"FINISHED";"RIGHT";"success";"447";"0";"2014-07-27 01:32:04.353";"3";;;;;;;;;;;;;;;;;;;;;
"Quontr3lly";"1980";;"Windows 7";"Rachel's Experiment (D.T.)";"1.0";"2";"1";"1";"2";"1";"1";"2014-07-27 01:22:52.444";"2014-07-27 01:40:26.546";"1";"0";"1";"153";"152";"module.training_block4.exec-8651.GoNoGo4";;;;;;;;;;;;;;;;;;;;;;;;;;;;;;;;;;;;;;;;;;;;;;;;;;;;;;;;;;;"1249";"2014-07-27 01:32:08.154";"NST_correctLoc";"20";"0";"FINISHED";"LEFT";"success";"471";"0";"2014-07-27 01:32:06.904";"3";;;;;;;;;;;;;;;;;;;;;
"Quontr3lly";"1980";;"Windows 7";"Rachel's Experiment (D.T.)";"1.0";"2";"1";"1";"2";"1";"1";"2014-07-27 01:22:52.444";"2014-07-27 01:40:26.546";"1";"0";"1";"154";"153";"module.training_block4.exec-8651.GoNoGo4";;;;;;;;;;;;;;;;;;;;;;;;;;;;;;;;;;;;;;;;;;;;;;;;;;;;;;;;;;;"1249";"2014-07-27 01:32:10.704";"NST_correctLoc";"23";"0";"FINISHED";"LEFT";"success";"424";"0";"2014-07-27 01:32:09.453";"3";;;;;;;;;;;;;;;;;;;;;
"Quontr3lly";"1980";;"Windows 7";"Rachel's Experiment (D.T.)";"1.0";"2";"1";"1";"2";"1";"1";"2014-07-27 01:22:52.444";"2014-07-27 01:40:26.546";"1";"0";"1";"155";"154";"module.training_block4.exec-8651.GoNoGo4";;;;;;;;;;;;;;;;;;;;;;;;;;;;;;;;;;;;;;;;;;;;;;;;;;;;;;;;;;;"1249";"2014-07-27 01:32:13.254";"NST_correctLoc";"4";"0";"FINISHED";"LEFT";"success";"402";"0";"2014-07-27 01:32:12.004";"1";;;;;;;;;;;;;;;;;;;;;
"Quontr3lly";"1980";;"Windows 7";"Rachel's Experiment (D.T.)";"1.0";"2";"1";"1";"2";"1";"1";"2014-07-27 01:22:52.444";"2014-07-27 01:40:26.546";"1";"0";"1";"156";"155";"module.training_block4.exec-8651.GoNoGo4";;;;;;;;;;;;;;;;;;;;;;;;;;;;;;;;;;;;;;;;;;;;;;;;;;;;;;;;;;;"1249";"2014-07-27 01:32:15.804";"NST_correctLoc";"11";"0";"FINISHED";"LEFT";"success";"405";"0";"2014-07-27 01:32:14.554";"2";;;;;;;;;;;;;;;;;;;;;
"Quontr3lly";"1980";;"Windows 7";"Rachel's Experiment (D.T.)";"1.0";"2";"1";"1";"2";"1";"1";"2014-07-27 01:22:52.444";"2014-07-27 01:40:26.546";"1";"0";"1";"157";"156";"module.training_block4.exec-8651.GoNoGo4";;;;;;;;;;;;;;;;;;;;;;;;;;;;;;;;;;;;;;;;;;;;;;;;;;;;;;;;;;;"1249";"2014-07-27 01:32:18.354";"NST_correctLoc";"0";"1";"FINISHED";"RIGHT";"success";"416";"0";"2014-07-27 01:32:17.104";"1";;;;;;;;;;;;;;;;;;;;;
"Quontr3lly";"1980";;"Windows 7";"Rachel's Experiment (D.T.)";"1.0";"2";"1";"1";"2";"1";"1";"2014-07-27 01:22:52.444";"2014-07-27 01:40:26.546";"1";"0";"1";"158";"157";"module.training_block4.exec-8651.GoNoGo4";;;;;;;;;;;;;;;;;;;;;;;;;;;;;;;;;;;;;;;;;;;;;;;;;;;;;;;;;;;"1249";"2014-07-27 01:32:20.904";"NST_correctLoc";"5";"1";"FINISHED";"RIGHT";"success";"546";"0";"2014-07-27 01:32:19.654";"1";;;;;;;;;;;;;;;;;;;;;
"Quontr3lly";"1980";;"Windows 7";"Rachel's Experiment (D.T.)";"1.0";"2";"1";"1";"2";"1";"1";"2014-07-27 01:22:52.444";"2014-07-27 01:40:26.546";"1";"0";"1";"159";"158";"module.training_block4.exec-8651.GoNoGo4";;;;;;;;;;;;;;;;;;;;;;;;;;;;;;;;;;;;;;;;;;;;;;;;;;;;;;;;;;;"1249";"2014-07-27 01:32:23.454";"NST_correctLoc";"25";"1";"FINISHED";"RIGHT";"success";"508";"0";"2014-07-27 01:32:22.204";"3";;;;;;;;;;;;;;;;;;;;;
"Quontr3lly";"1980";;"Windows 7";"Rachel's Experiment (D.T.)";"1.0";"2";"1";"1";"2";"1";"1";"2014-07-27 01:22:52.444";"2014-07-27 01:40:26.546";"1";"0";"1";"160";"159";"module.devaluation_practice.exec-8855.devalPractice";;;;;;;;;;;;"31696";"2014-07-27 01:33:39.937";"0";"7";"7";"8";"12520";"3993";"12142";"2014-07-27 01:33:08.240";;;;;;;;;;;;;;;;;;;;;;;;;;;;;;;;;;;;;;;;;;;;;;;;;;;;;;;;;;;;;;;;;;;;;;
"Quontr3lly";"1980";;"Windows 7";"Rachel's Experiment (D.T.)";"1.0";"2";"1";"1";"2";"1";"1";"2014-07-27 01:22:52.444";"2014-07-27 01:40:26.546";"1";"0";"1";"161";"160";"module.devaluation_practice.exec-8855.devalPractice";;;;;;;;;;;;"16912";"2014-07-27 01:33:56.889";"1";"4";"1";"1";"4787";"2816";"6300";"2014-07-27 01:33:39.976";;;;;;;;;;;;;;;;;;;;;;;;;;;;;;;;;;;;;;;;;;;;;;;;;;;;;;;;;;;;;;;;;;;;;;
"Quontr3lly";"1980";;"Windows 7";"Rachel's Experiment (D.T.)";"1.0";"2";"1";"1";"2";"1";"1";"2014-07-27 01:22:52.444";"2014-07-27 01:40:26.546";"1";"0";"1";"162";"161";"module.devaluation_practice.exec-8855.devalPractice";;;;;;;;;;;;"16945";"2014-07-27 01:34:13.888";"2";"5";"5";"6";"2088";"1257";"10589";"2014-07-27 01:33:56.943";;;;;;;;;;;;;;;;;;;;;;;;;;;;;;;;;;;;;;;;;;;;;;;;;;;;;;;;;;;;;;;;;;;;;;
"Quontr3lly";"1980";;"Windows 7";"Rachel's Experiment (D.T.)";"1.0";"2";"1";"1";"2";"1";"1";"2014-07-27 01:22:52.444";"2014-07-27 01:40:26.546";"1";"0";"1";"163";"162";"module.devaluation_practice.exec-8855.devalPractice";;;;;;;;;;;;"13229";"2014-07-27 01:34:27.264";"3";"9";"9";"9";"3161";"2296";"4761";"2014-07-27 01:34:14.035";;;;;;;;;;;;;;;;;;;;;;;;;;;;;;;;;;;;;;;;;;;;;;;;;;;;;;;;;;;;;;;;;;;;;;
"Quontr3lly";"1980";;"Windows 7";"Rachel's Experiment (D.T.)";"1.0";"2";"1";"1";"2";"1";"1";"2014-07-27 01:22:52.444";"2014-07-27 01:40:26.546";"1";"0";"1";"164";"163";"module.devaluation_block1.exec-2760.deval1";"19820";"2014-07-27 01:34:59.097";"22";"8";"4";"6";"9461";"4729";"2614";"2014-07-27 01:34:39.277";"3";;;;;;;;;;;;;;;;;;;;;;;;;;;;;;;;;;;;;;;;;;;;;;;;;;;;;;;;;;;;;;;;;;;;;;;;;;;;;;;;
"Quontr3lly";"1980";;"Windows 7";"Rachel's Experiment (D.T.)";"1.0";"2";"1";"1";"2";"1";"1";"2014-07-27 01:22:52.444";"2014-07-27 01:40:26.546";"1";"0";"1";"165";"164";"module.devaluation_block1.exec-2760.deval1";"11612";"2014-07-27 01:35:10.759";"6";"3";"1";"1";"2434";"1846";"4319";"2014-07-27 01:34:59.146";"1";;;;;;;;;;;;;;;;;;;;;;;;;;;;;;;;;;;;;;;;;;;;;;;;;;;;;;;;;;;;;;;;;;;;;;;;;;;;;;;;
"Quontr3lly";"1980";;"Windows 7";"Rachel's Experiment (D.T.)";"1.0";"2";"1";"1";"2";"1";"1";"2014-07-27 01:22:52.444";"2014-07-27 01:40:26.546";"1";"0";"1";"166";"165";"module.devaluation_block1.exec-2760.deval1";"17133";"2014-07-27 01:35:27.929";"5";"5";"6";"8";"4313";"1432";"8374";"2014-07-27 01:35:10.795";"1";;;;;;;;;;;;;;;;;;;;;;;;;;;;;;;;;;;;;;;;;;;;;;;;;;;;;;;;;;;;;;;;;;;;;;;;;;;;;;;;
"Quontr3lly";"1980";;"Windows 7";"Rachel's Experiment (D.T.)";"1.0";"2";"1";"1";"2";"1";"1";"2014-07-27 01:22:52.444";"2014-07-27 01:40:26.546";"1";"0";"1";"167";"166";"module.devaluation_block1.exec-2760.deval1";"11283";"2014-07-27 01:35:39.263";"13";"8";"9";"8";"3954";"1774";"2537";"2014-07-27 01:35:27.979";"2";;;;;;;;;;;;;;;;;;;;;;;;;;;;;;;;;;;;;;;;;;;;;;;;;;;;;;;;;;;;;;;;;;;;;;;;;;;;;;;;
"Quontr3lly";"1980";;"Windows 7";"Rachel's Experiment (D.T.)";"1.0";"2";"1";"1";"2";"1";"1";"2014-07-27 01:22:52.444";"2014-07-27 01:40:26.546";"1";"0";"1";"168";"167";"module.devaluation_block1.exec-2760.deval1";"16573";"2014-07-27 01:35:55.888";"25";"5";"2";"5";"9561";"2224";"1775";"2014-07-27 01:35:39.314";"3";;;;;;;;;;;;;;;;;;;;;;;;;;;;;;;;;;;;;;;;;;;;;;;;;;;;;;;;;;;;;;;;;;;;;;;;;;;;;;;;
"Quontr3lly";"1980";;"Windows 7";"Rachel's Experiment (D.T.)";"1.0";"2";"1";"1";"2";"1";"1";"2014-07-27 01:22:52.444";"2014-07-27 01:40:26.546";"1";"0";"1";"169";"168";"module.devaluation_block1.exec-2760.deval1";"17790";"2014-07-27 01:36:13.720";"8";"8";"1";"1";"9657";"2272";"2847";"2014-07-27 01:35:55.930";"1";;;;;;;;;;;;;;;;;;;;;;;;;;;;;;;;;;;;;;;;;;;;;;;;;;;;;;;;;;;;;;;;;;;;;;;;;;;;;;;;
"Quontr3lly";"1980";;"Windows 7";"Rachel's Experiment (D.T.)";"1.0";"2";"1";"1";"2";"1";"1";"2014-07-27 01:22:52.444";"2014-07-27 01:40:26.546";"1";"0";"1";"170";"169";"module.devaluation_block1.exec-2760.deval1";"9027";"2014-07-27 01:36:22.793";"12";"9";"9";"9";"2311";"1464";"2238";"2014-07-27 01:36:13.765";"2";;;;;;;;;;;;;;;;;;;;;;;;;;;;;;;;;;;;;;;;;;;;;;;;;;;;;;;;;;;;;;;;;;;;;;;;;;;;;;;;
"Quontr3lly";"1980";;"Windows 7";"Rachel's Experiment (D.T.)";"1.0";"2";"1";"1";"2";"1";"1";"2014-07-27 01:22:52.444";"2014-07-27 01:40:26.546";"1";"0";"1";"171";"170";"module.devaluation_block1.exec-2760.deval1";"15936";"2014-07-27 01:36:38.784";"10";"9";"1";"7";"1453";"1928";"9543";"2014-07-27 01:36:22.847";"2";;;;;;;;;;;;;;;;;;;;;;;;;;;;;;;;;;;;;;;;;;;;;;;;;;;;;;;;;;;;;;;;;;;;;;;;;;;;;;;;
"Quontr3lly";"1980";;"Windows 7";"Rachel's Experiment (D.T.)";"1.0";"2";"1";"1";"2";"1";"1";"2014-07-27 01:22:52.444";"2014-07-27 01:40:26.546";"1";"0";"1";"172";"171";"module.devaluation_block1.exec-2760.deval1";"10128";"2014-07-27 01:36:48.959";"9";"6";"1";"6";"1476";"2382";"3256";"2014-07-27 01:36:38.832";"2";;;;;;;;;;;;;;;;;;;;;;;;;;;;;;;;;;;;;;;;;;;;;;;;;;;;;;;;;;;;;;;;;;;;;;;;;;;;;;;;
"Quontr3lly";"1980";;"Windows 7";"Rachel's Experiment (D.T.)";"1.0";"2";"1";"1";"2";"1";"1";"2014-07-27 01:22:52.444";"2014-07-27 01:40:26.546";"1";"0";"1";"173";"172";"module.devaluation_block1.exec-2760.deval1";"14942";"2014-07-27 01:37:03.943";"23";"3";"1";"3";"3987";"1454";"6488";"2014-07-27 01:36:49.000";"3";;;;;;;;;;;;;;;;;;;;;;;;;;;;;;;;;;;;;;;;;;;;;;;;;;;;;;;;;;;;;;;;;;;;;;;;;;;;;;;;
"Quontr3lly";"1980";;"Windows 7";"Rachel's Experiment (D.T.)";"1.0";"2";"1";"1";"2";"1";"1";"2014-07-27 01:22:52.444";"2014-07-27 01:40:26.546";"1";"0";"1";"174";"173";"module.devaluation_block1.exec-2760.deval1";"12418";"2014-07-27 01:37:16.400";"1";"4";"7";"8";"3517";"2992";"2899";"2014-07-27 01:37:03.981";"1";;;;;;;;;;;;;;;;;;;;;;;;;;;;;;;;;;;;;;;;;;;;;;;;;;;;;;;;;;;;;;;;;;;;;;;;;;;;;;;;
"Quontr3lly";"1980";;"Windows 7";"Rachel's Experiment (D.T.)";"1.0";"2";"1";"1";"2";"1";"1";"2014-07-27 01:22:52.444";"2014-07-27 01:40:26.546";"1";"0";"1";"175";"174";"module.devaluation_block1.exec-2760.deval1";"9518";"2014-07-27 01:37:25.968";"16";"1";"1";"1";"2564";"2145";"1798";"2014-07-27 01:37:16.450";"2";;;;;;;;;;;;;;;;;;;;;;;;;;;;;;;;;;;;;;;;;;;;;;;;;;;;;;;;;;;;;;;;;;;;;;;;;;;;;;;;
"Quontr3lly";"1980";;"Windows 7";"Rachel's Experiment (D.T.)";"1.0";"2";"1";"1";"2";"1";"1";"2014-07-27 01:22:52.444";"2014-07-27 01:40:26.546";"1";"0";"1";"176";"175";"module.devaluation_block1.exec-2760.deval1";"10358";"2014-07-27 01:37:36.377";"19";"9";"9";"9";"3722";"1426";"2199";"2014-07-27 01:37:26.019";"3";;;;;;;;;;;;;;;;;;;;;;;;;;;;;;;;;;;;;;;;;;;;;;;;;;;;;;;;;;;;;;;;;;;;;;;;;;;;;;;;
"Quontr3lly";"1980";;"Windows 7";"Rachel's Experiment (D.T.)";"1.0";"2";"1";"1";"2";"1";"1";"2014-07-27 01:22:52.444";"2014-07-27 01:40:26.546";"1";"0";"1";"177";"176";"module.devaluation_block1.exec-2760.deval1";"8822";"2014-07-27 01:37:45.240";"14";"9";"9";"9";"2365";"1552";"1895";"2014-07-27 01:37:36.416";"2";;;;;;;;;;;;;;;;;;;;;;;;;;;;;;;;;;;;;;;;;;;;;;;;;;;;;;;;;;;;;;;;;;;;;;;;;;;;;;;;
"Quontr3lly";"1980";;"Windows 7";"Rachel's Experiment (D.T.)";"1.0";"2";"1";"1";"2";"1";"1";"2014-07-27 01:22:52.444";"2014-07-27 01:40:26.546";"1";"0";"1";"178";"177";"module.devaluation_block1.exec-2760.deval1";"12041";"2014-07-27 01:37:57.328";"7";"1";"1";"4";"2214";"2873";"3945";"2014-07-27 01:37:45.287";"1";;;;;;;;;;;;;;;;;;;;;;;;;;;;;;;;;;;;;;;;;;;;;;;;;;;;;;;;;;;;;;;;;;;;;;;;;;;;;;;;
"Quontr3lly";"1980";;"Windows 7";"Rachel's Experiment (D.T.)";"1.0";"2";"1";"1";"2";"1";"1";"2014-07-27 01:22:52.444";"2014-07-27 01:40:26.546";"1";"0";"1";"179";"178";"module.devaluation_block1.exec-2760.deval1";"10454";"2014-07-27 01:38:07.824";"15";"1";"1";"1";"2612";"3176";"1658";"2014-07-27 01:37:57.369";"2";;;;;;;;;;;;;;;;;;;;;;;;;;;;;;;;;;;;;;;;;;;;;;;;;;;;;;;;;;;;;;;;;;;;;;;;;;;;;;;;
"Quontr3lly";"1980";;"Windows 7";"Rachel's Experiment (D.T.)";"1.0";"2";"1";"1";"2";"1";"1";"2014-07-27 01:22:52.444";"2014-07-27 01:40:26.546";"1";"0";"1";"180";"179";"module.devaluation_block1.exec-2760.deval1";"11498";"2014-07-27 01:38:19.368";"18";"5";"5";"6";"2087";"1610";"4791";"2014-07-27 01:38:07.869";"3";;;;;;;;;;;;;;;;;;;;;;;;;;;;;;;;;;;;;;;;;;;;;;;;;;;;;;;;;;;;;;;;;;;;;;;;;;;;;;;;
"Quontr3lly";"1980";;"Windows 7";"Rachel's Experiment (D.T.)";"1.0";"2";"1";"1";"2";"1";"1";"2014-07-27 01:22:52.444";"2014-07-27 01:40:26.546";"1";"0";"1";"181";"180";"module.devaluation_block1.exec-2760.deval1";"18740";"2014-07-27 01:38:38.160";"3";"7";"7";"7";"8907";"4679";"2144";"2014-07-27 01:38:19.419";"1";;;;;;;;;;;;;;;;;;;;;;;;;;;;;;;;;;;;;;;;;;;;;;;;;;;;;;;;;;;;;;;;;;;;;;;;;;;;;;;;
"Quontr3lly";"1980";;"Windows 7";"Rachel's Experiment (D.T.)";"1.0";"2";"1";"1";"2";"1";"1";"2014-07-27 01:22:52.444";"2014-07-27 01:40:26.546";"1";"0";"1";"182";"181";"module.devaluation_block1.exec-2760.deval1";"10917";"2014-07-27 01:38:49.120";"24";"9";"8";"9";"1820";"3298";"2791";"2014-07-27 01:38:38.203";"3";;;;;;;;;;;;;;;;;;;;;;;;;;;;;;;;;;;;;;;;;;;;;;;;;;;;;;;;;;;;;;;;;;;;;;;;;;;;;;;;
"Quontr3lly";"1980";;"Windows 7";"Rachel's Experiment (D.T.)";"1.0";"2";"1";"1";"2";"1";"1";"2014-07-27 01:22:52.444";"2014-07-27 01:40:26.546";"1";"0";"1";"183";"182";"module.devaluation_block1.exec-2760.deval1";"7647";"2014-07-27 01:38:56.817";"11";"9";"1";"5";"1331";"1504";"1801";"2014-07-27 01:38:49.169";"2";;;;;;;;;;;;;;;;;;;;;;;;;;;;;;;;;;;;;;;;;;;;;;;;;;;;;;;;;;;;;;;;;;;;;;;;;;;;;;;;
"Quontr3lly";"1980";;"Windows 7";"Rachel's Experiment (D.T.)";"1.0";"2";"1";"1";"2";"1";"1";"2014-07-27 01:22:52.444";"2014-07-27 01:40:26.546";"1";"0";"1";"184";"183";"module.devaluation_block1.exec-2760.deval1";"8913";"2014-07-27 01:39:05.783";"21";"9";"9";"9";"2311";"2134";"1456";"2014-07-27 01:38:56.870";"3";;;;;;;;;;;;;;;;;;;;;;;;;;;;;;;;;;;;;;;;;;;;;;;;;;;;;;;;;;;;;;;;;;;;;;;;;;;;;;;;
"Quontr3lly";"1980";;"Windows 7";"Rachel's Experiment (D.T.)";"1.0";"2";"1";"1";"2";"1";"1";"2014-07-27 01:22:52.444";"2014-07-27 01:40:26.546";"1";"0";"1";"185";"184";"module.devaluation_block1.exec-2760.deval1";"8932";"2014-07-27 01:39:14.753";"2";"8";"6";"7";"3128";"1200";"1595";"2014-07-27 01:39:05.819";"1";;;;;;;;;;;;;;;;;;;;;;;;;;;;;;;;;;;;;;;;;;;;;;;;;;;;;;;;;;;;;;;;;;;;;;;;;;;;;;;;
"Quontr3lly";"1980";;"Windows 7";"Rachel's Experiment (D.T.)";"1.0";"2";"1";"1";"2";"1";"1";"2014-07-27 01:22:52.444";"2014-07-27 01:40:26.546";"1";"0";"1";"186";"185";"module.devaluation_block1.exec-2760.deval1";"11539";"2014-07-27 01:39:26.327";"4";"9";"1";"3";"2280";"1401";"4847";"2014-07-27 01:39:14.789";"1";;;;;;;;;;;;;;;;;;;;;;;;;;;;;;;;;;;;;;;;;;;;;;;;;;;;;;;;;;;;;;;;;;;;;;;;;;;;;;;;
"Quontr3lly";"1980";;"Windows 7";"Rachel's Experiment (D.T.)";"1.0";"2";"1";"1";"2";"1";"1";"2014-07-27 01:22:52.444";"2014-07-27 01:40:26.546";"1";"0";"1";"187";"186";"module.devaluation_block1.exec-2760.deval1";"15259";"2014-07-27 01:39:41.633";"17";"5";"1";"2";"1288";"4082";"6880";"2014-07-27 01:39:26.372";"2";;;;;;;;;;;;;;;;;;;;;;;;;;;;;;;;;;;;;;;;;;;;;;;;;;;;;;;;;;;;;;;;;;;;;;;;;;;;;;;;
"Quontr3lly";"1980";;"Windows 7";"Rachel's Experiment (D.T.)";"1.0";"2";"1";"1";"2";"1";"1";"2014-07-27 01:22:52.444";"2014-07-27 01:40:26.546";"1";"0";"1";"188";"187";"module.devaluation_block1.exec-2760.deval1";"18156";"2014-07-27 01:39:59.830";"20";"8";"2";"2";"9156";"3398";"2594";"2014-07-27 01:39:41.673";"3";;;;;;;;;;;;;;;;;;;;;;;;;;;;;;;;;;;;;;;;;;;;;;;;;;;;;;;;;;;;;;;;;;;;;;;;;;;;;;;;
"Quontr3lly";"1980";;"Windows 7";"Rachel's Experiment (D.T.)";"1.0";"2";"1";"1";"2";"1";"1";"2014-07-27 01:22:52.444";"2014-07-27 01:40:26.546";"1";"0";"1";"189";"188";"module.devaluation_block1.exec-2760.deval1";"12790";"2014-07-27 01:40:12.664";"0";"4";"6";"7";"2885";"4976";"1920";"2014-07-27 01:39:59.872";"1";;;;;;;;;;;;;;;;;;;;;;;;;;;;;;;;;;;;;;;;;;;;;;;;;;;;;;;;;;;;;;;;;;;;;;;;;;;;;;;;
"Quontr3lly";"1980";;"Windows 7";"Rachel's Experiment (D.T.)";"1.0";"2";"1";"1";"2";"1";"1";"2014-07-27 01:22:52.444";"2014-07-27 01:40:26.546";"1";"0";"1";"190";"189";"module.devaluation_block1.exec-2760.deval1";"10126";"2014-07-27 01:40:22.833";"26";"9";"1";"6";"1682";"1577";"3857";"2014-07-27 01:40:12.706";"3";;;;;;;;;;;;;;;;;;;;;;;;;;;;;;;;;;;;;;;;;;;;;;;;;;;;;;;;;;;;;;;;;;;;;;;;;;;;;;;;
