"user.name";"user.yearOfBirth";"user.sex";"user.osName";"module.name";"module.version";"module.online.subject.code";"module.online.study.id";"module.online.module.nr";"module.online.group.nr";"session.id";"session.index";"session.startTime";"session.endTime";"session.completed";"session.node-7044.DevalQorder";"session.node-9126.conditionType";"trial.id";"trial.index";"trial.name";"trial.deval1.durationTime";"trial.deval1.endTime";"trial.deval1.icon";"trial.deval1.Resp_Attractive";"trial.deval1.Resp_Eat";"trial.deval1.Resp_Taste";"trial.deval1.RT_Attractive";"trial.deval1.RT_Eat";"trial.deval1.RT_Taste";"trial.deval1.startTime";"trial.deval1.stimulus type";"trial.devalPractice.durationTime";"trial.devalPractice.endTime";"trial.devalPractice.icon";"trial.devalPractice.Resp_Attractive";"trial.devalPractice.Resp_Eat";"trial.devalPractice.Resp_Taste";"trial.devalPractice.RT_Attractive";"trial.devalPractice.RT_Eat";"trial.devalPractice.RT_Taste";"trial.devalPractice.startTime";"trial.devalPractice.stimulus type";"trial.GoNoGo1.durationTime";"trial.GoNoGo1.endTime";"trial.GoNoGo1.Error Type";"trial.GoNoGo1.icon";"trial.GoNoGo1.location";"trial.GoNoGo1.outcome";"trial.GoNoGo1.response";"trial.GoNoGo1.result";"trial.GoNoGo1.RT";"trial.GoNoGo1.signal";"trial.GoNoGo1.startTime";"trial.GoNoGo1.stimulus type";"trial.GoNoGo2.durationTime";"trial.GoNoGo2.endTime";"trial.GoNoGo2.Error Type";"trial.GoNoGo2.icon";"trial.GoNoGo2.location";"trial.GoNoGo2.outcome";"trial.GoNoGo2.response";"trial.GoNoGo2.result";"trial.GoNoGo2.RT";"trial.GoNoGo2.signal";"trial.GoNoGo2.startTime";"trial.GoNoGo2.stimulus type";"trial.GoNoGo3.durationTime";"trial.GoNoGo3.endTime";"trial.GoNoGo3.Error Type";"trial.GoNoGo3.icon";"trial.GoNoGo3.location";"trial.GoNoGo3.outcome";"trial.GoNoGo3.response";"trial.GoNoGo3.result";"trial.GoNoGo3.RT";"trial.GoNoGo3.signal";"trial.GoNoGo3.startTime";"trial.GoNoGo3.stimulus type";"trial.GoNoGo4.durationTime";"trial.GoNoGo4.endTime";"trial.GoNoGo4.Error Type";"trial.GoNoGo4.icon";"trial.GoNoGo4.location";"trial.GoNoGo4.outcome";"trial.GoNoGo4.response";"trial.GoNoGo4.result";"trial.GoNoGo4.RT";"trial.GoNoGo4.signal";"trial.GoNoGo4.startTime";"trial.GoNoGo4.stimulus type";"trial.GoNoGo_Practice.durationTime";"trial.GoNoGo_Practice.endTime";"trial.GoNoGo_Practice.icon";"trial.GoNoGo_Practice.location";"trial.GoNoGo_Practice.outcome";"trial.GoNoGo_Practice.response";"trial.GoNoGo_Practice.result";"trial.GoNoGo_Practice.RT";"trial.GoNoGo_Practice.signal";"trial.GoNoGo_Practice.startTime";"trial.GoNoGo_Practice.stimulus type";"trial.GoNoGo_Tutorial.durationTime";"trial.GoNoGo_Tutorial.endTime";"trial.GoNoGo_Tutorial.icon";"trial.GoNoGo_Tutorial.location";"trial.GoNoGo_Tutorial.outcome";"trial.GoNoGo_Tutorial.response";"trial.GoNoGo_Tutorial.result";"trial.GoNoGo_Tutorial.RT";"trial.GoNoGo_Tutorial.signal";"trial.GoNoGo_Tutorial.startTime"
"Grg170dx";"1996";;"Windows 7";"Rachel's Experiment (D.T.)";"1.0";"2";"1";"1";"2";"1";"1";"2014-10-01 13:05:53.029";"2014-10-01 13:23:42.807";"1";"1";"1";"1";"0";"module.GoNoGotutorial.exec-6080.GoNoGo_Tutorial";;;;;;;;;;;;;;;;;;;;;;;;;;;;;;;;;;;;;;;;;;;;;;;;;;;;;;;;;;;;;;;;;;;;;;;;;;;;;;;;;;"4001";"2014-10-01 13:07:58.895";"leftResponse";"0";"FINISHED";"LEFT";"success";"788";"0";"2014-10-01 13:07:54.893"
"Grg170dx";"1996";;"Windows 7";"Rachel's Experiment (D.T.)";"1.0";"2";"1";"1";"2";"1";"1";"2014-10-01 13:05:53.029";"2014-10-01 13:23:42.807";"1";"1";"1";"2";"1";"module.GoNoGotutorial.exec-6080.GoNoGo_Tutorial";;;;;;;;;;;;;;;;;;;;;;;;;;;;;;;;;;;;;;;;;;;;;;;;;;;;;;;;;;;;;;;;;;;;;;;;;;;;;;;;;;"4000";"2014-10-01 13:08:04.249";"rightResponse";"1";"FINISHED";"RIGHT";"success";"1391";"0";"2014-10-01 13:08:00.249"
"Grg170dx";"1996";;"Windows 7";"Rachel's Experiment (D.T.)";"1.0";"2";"1";"1";"2";"1";"1";"2014-10-01 13:05:53.029";"2014-10-01 13:23:42.807";"1";"1";"1";"3";"2";"module.GoNoGotutorial.exec-6080.GoNoGo_Tutorial";;;;;;;;;;;;;;;;;;;;;;;;;;;;;;;;;;;;;;;;;;;;;;;;;;;;;;;;;;;;;;;;;;;;;;;;;;;;;;;;;;"3999";"2014-10-01 13:08:09.598";"signalResponse";"0";"FINISHED";"NONE";"success";"0";"1";"2014-10-01 13:08:05.598"
"Grg170dx";"1996";;"Windows 7";"Rachel's Experiment (D.T.)";"1.0";"2";"1";"1";"2";"1";"1";"2014-10-01 13:05:53.029";"2014-10-01 13:23:42.807";"1";"1";"1";"4";"3";"module.GoNoGopractice.exec-6067.GoNoGo_Practice";;;;;;;;;;;;;;;;;;;;;;;;;;;;;;;;;;;;;;;;;;;;;;;;;;;;;;;;;;;;;;;;;;;;;;;"1963";"2014-10-01 13:08:17.375";"18";"0";"FINISHED";"LEFT";"success";"761";"0";"2014-10-01 13:08:15.411";"3";;;;;;;;;;
"Grg170dx";"1996";;"Windows 7";"Rachel's Experiment (D.T.)";"1.0";"2";"1";"1";"2";"1";"1";"2014-10-01 13:05:53.029";"2014-10-01 13:23:42.807";"1";"1";"1";"5";"4";"module.GoNoGopractice.exec-6067.GoNoGo_Practice";;;;;;;;;;;;;;;;;;;;;;;;;;;;;;;;;;;;;;;;;;;;;;;;;;;;;;;;;;;;;;;;;;;;;;;"1951";"2014-10-01 13:08:20.673";"21";"1";"FINISHED";"RIGHT";"success";"649";"0";"2014-10-01 13:08:18.721";"3";;;;;;;;;;
"Grg170dx";"1996";;"Windows 7";"Rachel's Experiment (D.T.)";"1.0";"2";"1";"1";"2";"1";"1";"2014-10-01 13:05:53.029";"2014-10-01 13:23:42.807";"1";"1";"1";"6";"5";"module.GoNoGopractice.exec-6067.GoNoGo_Practice";;;;;;;;;;;;;;;;;;;;;;;;;;;;;;;;;;;;;;;;;;;;;;;;;;;;;;;;;;;;;;;;;;;;;;;"1959";"2014-10-01 13:08:23.972";"14";"1";"FINISHED";"RIGHT";"failure";"598";"1";"2014-10-01 13:08:22.012";"2";;;;;;;;;;
"Grg170dx";"1996";;"Windows 7";"Rachel's Experiment (D.T.)";"1.0";"2";"1";"1";"2";"1";"1";"2014-10-01 13:05:53.029";"2014-10-01 13:23:42.807";"1";"1";"1";"7";"6";"module.GoNoGopractice.exec-6067.GoNoGo_Practice";;;;;;;;;;;;;;;;;;;;;;;;;;;;;;;;;;;;;;;;;;;;;;;;;;;;;;;;;;;;;;;;;;;;;;;"1952";"2014-10-01 13:08:27.290";"26";"0";"FINISHED";"LEFT";"success";"533";"0";"2014-10-01 13:08:25.338";"3";;;;;;;;;;
"Grg170dx";"1996";;"Windows 7";"Rachel's Experiment (D.T.)";"1.0";"2";"1";"1";"2";"1";"1";"2014-10-01 13:05:53.029";"2014-10-01 13:23:42.807";"1";"1";"1";"8";"7";"module.GoNoGopractice.exec-6067.GoNoGo_Practice";;;;;;;;;;;;;;;;;;;;;;;;;;;;;;;;;;;;;;;;;;;;;;;;;;;;;;;;;;;;;;;;;;;;;;;"1951";"2014-10-01 13:08:30.579";"2";"0";"FINISHED";"LEFT";"success";"614";"0";"2014-10-01 13:08:28.627";"1";;;;;;;;;;
"Grg170dx";"1996";;"Windows 7";"Rachel's Experiment (D.T.)";"1.0";"2";"1";"1";"2";"1";"1";"2014-10-01 13:05:53.029";"2014-10-01 13:23:42.807";"1";"1";"1";"9";"8";"module.GoNoGopractice.exec-6067.GoNoGo_Practice";;;;;;;;;;;;;;;;;;;;;;;;;;;;;;;;;;;;;;;;;;;;;;;;;;;;;;;;;;;;;;;;;;;;;;;"1951";"2014-10-01 13:08:33.866";"30";"0";"FINISHED";"LEFT";"failure";"613";"1";"2014-10-01 13:08:31.914";"3";;;;;;;;;;
"Grg170dx";"1996";;"Windows 7";"Rachel's Experiment (D.T.)";"1.0";"2";"1";"1";"2";"1";"1";"2014-10-01 13:05:53.029";"2014-10-01 13:23:42.807";"1";"1";"1";"10";"9";"module.GoNoGopractice.exec-6067.GoNoGo_Practice";;;;;;;;;;;;;;;;;;;;;;;;;;;;;;;;;;;;;;;;;;;;;;;;;;;;;;;;;;;;;;;;;;;;;;;"1951";"2014-10-01 13:08:37.152";"6";"1";"FINISHED";"RIGHT";"failure";"547";"1";"2014-10-01 13:08:35.200";"1";;;;;;;;;;
"Grg170dx";"1996";;"Windows 7";"Rachel's Experiment (D.T.)";"1.0";"2";"1";"1";"2";"1";"1";"2014-10-01 13:05:53.029";"2014-10-01 13:23:42.807";"1";"1";"1";"11";"10";"module.GoNoGopractice.exec-6067.GoNoGo_Practice";;;;;;;;;;;;;;;;;;;;;;;;;;;;;;;;;;;;;;;;;;;;;;;;;;;;;;;;;;;;;;;;;;;;;;;"1952";"2014-10-01 13:08:40.438";"34";"0";"FINISHED";"LEFT";"success";"581";"0";"2014-10-01 13:08:38.486";"3";;;;;;;;;;
"Grg170dx";"1996";;"Windows 7";"Rachel's Experiment (D.T.)";"1.0";"2";"1";"1";"2";"1";"1";"2014-10-01 13:05:53.029";"2014-10-01 13:23:42.807";"1";"1";"1";"12";"11";"module.GoNoGopractice.exec-6067.GoNoGo_Practice";;;;;;;;;;;;;;;;;;;;;;;;;;;;;;;;;;;;;;;;;;;;;;;;;;;;;;;;;;;;;;;;;;;;;;;"1951";"2014-10-01 13:08:43.721";"23";"1";"FINISHED";"RIGHT";"success";"549";"0";"2014-10-01 13:08:41.769";"3";;;;;;;;;;
"Grg170dx";"1996";;"Windows 7";"Rachel's Experiment (D.T.)";"1.0";"2";"1";"1";"2";"1";"1";"2014-10-01 13:05:53.029";"2014-10-01 13:23:42.807";"1";"1";"1";"13";"12";"module.GoNoGopractice.exec-6067.GoNoGo_Practice";;;;;;;;;;;;;;;;;;;;;;;;;;;;;;;;;;;;;;;;;;;;;;;;;;;;;;;;;;;;;;;;;;;;;;;"1960";"2014-10-01 13:08:47.014";"13";"0";"FINISHED";"NONE";"success";"0";"1";"2014-10-01 13:08:45.054";"2";;;;;;;;;;
"Grg170dx";"1996";;"Windows 7";"Rachel's Experiment (D.T.)";"1.0";"2";"1";"1";"2";"1";"1";"2014-10-01 13:05:53.029";"2014-10-01 13:23:42.807";"1";"1";"1";"14";"13";"module.GoNoGopractice.exec-6067.GoNoGo_Practice";;;;;;;;;;;;;;;;;;;;;;;;;;;;;;;;;;;;;;;;;;;;;;;;;;;;;;;;;;;;;;;;;;;;;;;"1951";"2014-10-01 13:08:50.297";"3";"1";"FINISHED";"RIGHT";"success";"485";"0";"2014-10-01 13:08:48.345";"1";;;;;;;;;;
"Grg170dx";"1996";;"Windows 7";"Rachel's Experiment (D.T.)";"1.0";"2";"1";"1";"2";"1";"1";"2014-10-01 13:05:53.029";"2014-10-01 13:23:42.807";"1";"1";"1";"15";"14";"module.GoNoGopractice.exec-6067.GoNoGo_Practice";;;;;;;;;;;;;;;;;;;;;;;;;;;;;;;;;;;;;;;;;;;;;;;;;;;;;;;;;;;;;;;;;;;;;;;"1952";"2014-10-01 13:08:53.584";"27";"1";"FINISHED";"NONE";"success";"0";"1";"2014-10-01 13:08:51.632";"3";;;;;;;;;;
"Grg170dx";"1996";;"Windows 7";"Rachel's Experiment (D.T.)";"1.0";"2";"1";"1";"2";"1";"1";"2014-10-01 13:05:53.029";"2014-10-01 13:23:42.807";"1";"1";"1";"16";"15";"module.training_block1.exec-5095.GoNoGo1";;;;;;;;;;;;;;;;;;;;;;;"1251";"2014-10-01 13:09:05.909";"ST_correctStop";"1";"0";"FINISHED";"NONE";"success";"0";"1";"2014-10-01 13:09:04.658";"1";;;;;;;;;;;;;;;;;;;;;;;;;;;;;;;;;;;;;;;;;;;;;;;;;;;;;;;;;
"Grg170dx";"1996";;"Windows 7";"Rachel's Experiment (D.T.)";"1.0";"2";"1";"1";"2";"1";"1";"2014-10-01 13:05:53.029";"2014-10-01 13:23:42.807";"1";"1";"1";"17";"16";"module.training_block1.exec-5095.GoNoGo1";;;;;;;;;;;;;;;;;;;;;;;"1249";"2014-10-01 13:09:08.499";"ST_correctStop";"34";"0";"FINISHED";"NONE";"success";"0";"1";"2014-10-01 13:09:07.249";"3";;;;;;;;;;;;;;;;;;;;;;;;;;;;;;;;;;;;;;;;;;;;;;;;;;;;;;;;;
"Grg170dx";"1996";;"Windows 7";"Rachel's Experiment (D.T.)";"1.0";"2";"1";"1";"2";"1";"1";"2014-10-01 13:05:53.029";"2014-10-01 13:23:42.807";"1";"1";"1";"18";"17";"module.training_block1.exec-5095.GoNoGo1";;;;;;;;;;;;;;;;;;;;;;;"1250";"2014-10-01 13:09:11.080";"NST_correctLoc";"9";"1";"FINISHED";"RIGHT";"success";"424";"0";"2014-10-01 13:09:09.830";"2";;;;;;;;;;;;;;;;;;;;;;;;;;;;;;;;;;;;;;;;;;;;;;;;;;;;;;;;;
"Grg170dx";"1996";;"Windows 7";"Rachel's Experiment (D.T.)";"1.0";"2";"1";"1";"2";"1";"1";"2014-10-01 13:05:53.029";"2014-10-01 13:23:42.807";"1";"1";"1";"19";"18";"module.training_block1.exec-5095.GoNoGo1";;;;;;;;;;;;;;;;;;;;;;;"1249";"2014-10-01 13:09:13.665";"NST_correctLoc";"32";"0";"FINISHED";"LEFT";"success";"436";"0";"2014-10-01 13:09:12.415";"3";;;;;;;;;;;;;;;;;;;;;;;;;;;;;;;;;;;;;;;;;;;;;;;;;;;;;;;;;
"Grg170dx";"1996";;"Windows 7";"Rachel's Experiment (D.T.)";"1.0";"2";"1";"1";"2";"1";"1";"2014-10-01 13:05:53.029";"2014-10-01 13:23:42.807";"1";"1";"1";"20";"19";"module.training_block1.exec-5095.GoNoGo1";;;;;;;;;;;;;;;;;;;;;;;"1250";"2014-10-01 13:09:16.242";"NST_correctLoc";"16";"0";"FINISHED";"LEFT";"success";"458";"0";"2014-10-01 13:09:14.992";"2";;;;;;;;;;;;;;;;;;;;;;;;;;;;;;;;;;;;;;;;;;;;;;;;;;;;;;;;;
"Grg170dx";"1996";;"Windows 7";"Rachel's Experiment (D.T.)";"1.0";"2";"1";"1";"2";"1";"1";"2014-10-01 13:05:53.029";"2014-10-01 13:23:42.807";"1";"1";"1";"21";"20";"module.training_block1.exec-5095.GoNoGo1";;;;;;;;;;;;;;;;;;;;;;;"1249";"2014-10-01 13:09:18.820";"NST_correctLoc";"10";"1";"FINISHED";"RIGHT";"success";"536";"0";"2014-10-01 13:09:17.570";"2";;;;;;;;;;;;;;;;;;;;;;;;;;;;;;;;;;;;;;;;;;;;;;;;;;;;;;;;;
"Grg170dx";"1996";;"Windows 7";"Rachel's Experiment (D.T.)";"1.0";"2";"1";"1";"2";"1";"1";"2014-10-01 13:05:53.029";"2014-10-01 13:23:42.807";"1";"1";"1";"22";"21";"module.training_block1.exec-5095.GoNoGo1";;;;;;;;;;;;;;;;;;;;;;;"1249";"2014-10-01 13:09:21.389";"NST_correctLoc";"13";"1";"FINISHED";"RIGHT";"success";"504";"0";"2014-10-01 13:09:20.139";"2";;;;;;;;;;;;;;;;;;;;;;;;;;;;;;;;;;;;;;;;;;;;;;;;;;;;;;;;;
"Grg170dx";"1996";;"Windows 7";"Rachel's Experiment (D.T.)";"1.0";"2";"1";"1";"2";"1";"1";"2014-10-01 13:05:53.029";"2014-10-01 13:23:42.807";"1";"1";"1";"23";"22";"module.training_block1.exec-5095.GoNoGo1";;;;;;;;;;;;;;;;;;;;;;;"1250";"2014-10-01 13:09:23.971";"ST_correctStop";"0";"1";"FINISHED";"NONE";"success";"0";"1";"2014-10-01 13:09:22.721";"1";;;;;;;;;;;;;;;;;;;;;;;;;;;;;;;;;;;;;;;;;;;;;;;;;;;;;;;;;
"Grg170dx";"1996";;"Windows 7";"Rachel's Experiment (D.T.)";"1.0";"2";"1";"1";"2";"1";"1";"2014-10-01 13:05:53.029";"2014-10-01 13:23:42.807";"1";"1";"1";"24";"23";"module.training_block1.exec-5095.GoNoGo1";;;;;;;;;;;;;;;;;;;;;;;"1249";"2014-10-01 13:09:26.549";"ST_failedStop";"22";"0";"FINISHED";"LEFT";"failure";"506";"1";"2014-10-01 13:09:25.299";"3";;;;;;;;;;;;;;;;;;;;;;;;;;;;;;;;;;;;;;;;;;;;;;;;;;;;;;;;;
"Grg170dx";"1996";;"Windows 7";"Rachel's Experiment (D.T.)";"1.0";"2";"1";"1";"2";"1";"1";"2014-10-01 13:05:53.029";"2014-10-01 13:23:42.807";"1";"1";"1";"25";"24";"module.training_block1.exec-5095.GoNoGo1";;;;;;;;;;;;;;;;;;;;;;;"1250";"2014-10-01 13:09:29.124";"NST_correctLoc";"11";"0";"FINISHED";"LEFT";"success";"511";"0";"2014-10-01 13:09:27.874";"2";;;;;;;;;;;;;;;;;;;;;;;;;;;;;;;;;;;;;;;;;;;;;;;;;;;;;;;;;
"Grg170dx";"1996";;"Windows 7";"Rachel's Experiment (D.T.)";"1.0";"2";"1";"1";"2";"1";"1";"2014-10-01 13:05:53.029";"2014-10-01 13:23:42.807";"1";"1";"1";"26";"25";"module.training_block1.exec-5095.GoNoGo1";;;;;;;;;;;;;;;;;;;;;;;"1250";"2014-10-01 13:09:31.691";"NST_correctLoc";"14";"1";"FINISHED";"RIGHT";"success";"615";"0";"2014-10-01 13:09:30.441";"2";;;;;;;;;;;;;;;;;;;;;;;;;;;;;;;;;;;;;;;;;;;;;;;;;;;;;;;;;
"Grg170dx";"1996";;"Windows 7";"Rachel's Experiment (D.T.)";"1.0";"2";"1";"1";"2";"1";"1";"2014-10-01 13:05:53.029";"2014-10-01 13:23:42.807";"1";"1";"1";"27";"26";"module.training_block1.exec-5095.GoNoGo1";;;;;;;;;;;;;;;;;;;;;;;"1250";"2014-10-01 13:09:34.257";"ST_correctStop";"26";"0";"FINISHED";"NONE";"success";"0";"1";"2014-10-01 13:09:33.007";"3";;;;;;;;;;;;;;;;;;;;;;;;;;;;;;;;;;;;;;;;;;;;;;;;;;;;;;;;;
"Grg170dx";"1996";;"Windows 7";"Rachel's Experiment (D.T.)";"1.0";"2";"1";"1";"2";"1";"1";"2014-10-01 13:05:53.029";"2014-10-01 13:23:42.807";"1";"1";"1";"28";"27";"module.training_block1.exec-5095.GoNoGo1";;;;;;;;;;;;;;;;;;;;;;;"1250";"2014-10-01 13:09:36.821";"ST_correctStop";"27";"1";"FINISHED";"NONE";"success";"0";"1";"2014-10-01 13:09:35.571";"3";;;;;;;;;;;;;;;;;;;;;;;;;;;;;;;;;;;;;;;;;;;;;;;;;;;;;;;;;
"Grg170dx";"1996";;"Windows 7";"Rachel's Experiment (D.T.)";"1.0";"2";"1";"1";"2";"1";"1";"2014-10-01 13:05:53.029";"2014-10-01 13:23:42.807";"1";"1";"1";"29";"28";"module.training_block1.exec-5095.GoNoGo1";;;;;;;;;;;;;;;;;;;;;;;"1249";"2014-10-01 13:09:39.388";"NST_correctLoc";"18";"1";"FINISHED";"RIGHT";"success";"494";"0";"2014-10-01 13:09:38.138";"3";;;;;;;;;;;;;;;;;;;;;;;;;;;;;;;;;;;;;;;;;;;;;;;;;;;;;;;;;
"Grg170dx";"1996";;"Windows 7";"Rachel's Experiment (D.T.)";"1.0";"2";"1";"1";"2";"1";"1";"2014-10-01 13:05:53.029";"2014-10-01 13:23:42.807";"1";"1";"1";"30";"29";"module.training_block1.exec-5095.GoNoGo1";;;;;;;;;;;;;;;;;;;;;;;"1250";"2014-10-01 13:09:41.964";"NST_correctLoc";"35";"0";"FINISHED";"LEFT";"success";"540";"0";"2014-10-01 13:09:40.714";"3";;;;;;;;;;;;;;;;;;;;;;;;;;;;;;;;;;;;;;;;;;;;;;;;;;;;;;;;;
"Grg170dx";"1996";;"Windows 7";"Rachel's Experiment (D.T.)";"1.0";"2";"1";"1";"2";"1";"1";"2014-10-01 13:05:53.029";"2014-10-01 13:23:42.807";"1";"1";"1";"31";"30";"module.training_block1.exec-5095.GoNoGo1";;;;;;;;;;;;;;;;;;;;;;;"1250";"2014-10-01 13:09:44.545";"NST_correctLoc";"29";"0";"FINISHED";"LEFT";"success";"617";"0";"2014-10-01 13:09:43.295";"3";;;;;;;;;;;;;;;;;;;;;;;;;;;;;;;;;;;;;;;;;;;;;;;;;;;;;;;;;
"Grg170dx";"1996";;"Windows 7";"Rachel's Experiment (D.T.)";"1.0";"2";"1";"1";"2";"1";"1";"2014-10-01 13:05:53.029";"2014-10-01 13:23:42.807";"1";"1";"1";"32";"31";"module.training_block1.exec-5095.GoNoGo1";;;;;;;;;;;;;;;;;;;;;;;"1250";"2014-10-01 13:09:47.119";"ST_correctStop";"4";"1";"FINISHED";"NONE";"success";"0";"1";"2014-10-01 13:09:45.869";"1";;;;;;;;;;;;;;;;;;;;;;;;;;;;;;;;;;;;;;;;;;;;;;;;;;;;;;;;;
"Grg170dx";"1996";;"Windows 7";"Rachel's Experiment (D.T.)";"1.0";"2";"1";"1";"2";"1";"1";"2014-10-01 13:05:53.029";"2014-10-01 13:23:42.807";"1";"1";"1";"33";"32";"module.training_block1.exec-5095.GoNoGo1";;;;;;;;;;;;;;;;;;;;;;;"1249";"2014-10-01 13:09:49.689";"ST_correctStop";"25";"1";"FINISHED";"NONE";"success";"0";"1";"2014-10-01 13:09:48.439";"3";;;;;;;;;;;;;;;;;;;;;;;;;;;;;;;;;;;;;;;;;;;;;;;;;;;;;;;;;
"Grg170dx";"1996";;"Windows 7";"Rachel's Experiment (D.T.)";"1.0";"2";"1";"1";"2";"1";"1";"2014-10-01 13:05:53.029";"2014-10-01 13:23:42.807";"1";"1";"1";"34";"33";"module.training_block1.exec-5095.GoNoGo1";;;;;;;;;;;;;;;;;;;;;;;"1250";"2014-10-01 13:09:52.250";"ST_correctStop";"2";"0";"FINISHED";"NONE";"success";"0";"1";"2014-10-01 13:09:51.000";"1";;;;;;;;;;;;;;;;;;;;;;;;;;;;;;;;;;;;;;;;;;;;;;;;;;;;;;;;;
"Grg170dx";"1996";;"Windows 7";"Rachel's Experiment (D.T.)";"1.0";"2";"1";"1";"2";"1";"1";"2014-10-01 13:05:53.029";"2014-10-01 13:23:42.807";"1";"1";"1";"35";"34";"module.training_block1.exec-5095.GoNoGo1";;;;;;;;;;;;;;;;;;;;;;;"1249";"2014-10-01 13:09:54.824";"NST_correctLoc";"19";"1";"FINISHED";"RIGHT";"success";"449";"0";"2014-10-01 13:09:53.574";"3";;;;;;;;;;;;;;;;;;;;;;;;;;;;;;;;;;;;;;;;;;;;;;;;;;;;;;;;;
"Grg170dx";"1996";;"Windows 7";"Rachel's Experiment (D.T.)";"1.0";"2";"1";"1";"2";"1";"1";"2014-10-01 13:05:53.029";"2014-10-01 13:23:42.807";"1";"1";"1";"36";"35";"module.training_block1.exec-5095.GoNoGo1";;;;;;;;;;;;;;;;;;;;;;;"1249";"2014-10-01 13:09:57.396";"ST_correctStop";"20";"0";"FINISHED";"NONE";"success";"0";"1";"2014-10-01 13:09:56.146";"3";;;;;;;;;;;;;;;;;;;;;;;;;;;;;;;;;;;;;;;;;;;;;;;;;;;;;;;;;
"Grg170dx";"1996";;"Windows 7";"Rachel's Experiment (D.T.)";"1.0";"2";"1";"1";"2";"1";"1";"2014-10-01 13:05:53.029";"2014-10-01 13:23:42.807";"1";"1";"1";"37";"36";"module.training_block1.exec-5095.GoNoGo1";;;;;;;;;;;;;;;;;;;;;;;"1249";"2014-10-01 13:09:59.968";"NST_correctLoc";"12";"0";"FINISHED";"LEFT";"success";"517";"0";"2014-10-01 13:09:58.718";"2";;;;;;;;;;;;;;;;;;;;;;;;;;;;;;;;;;;;;;;;;;;;;;;;;;;;;;;;;
"Grg170dx";"1996";;"Windows 7";"Rachel's Experiment (D.T.)";"1.0";"2";"1";"1";"2";"1";"1";"2014-10-01 13:05:53.029";"2014-10-01 13:23:42.807";"1";"1";"1";"38";"37";"module.training_block1.exec-5095.GoNoGo1";;;;;;;;;;;;;;;;;;;;;;;"1250";"2014-10-01 13:10:02.530";"ST_correctStop";"23";"0";"FINISHED";"NONE";"success";"0";"1";"2014-10-01 13:10:01.280";"3";;;;;;;;;;;;;;;;;;;;;;;;;;;;;;;;;;;;;;;;;;;;;;;;;;;;;;;;;
"Grg170dx";"1996";;"Windows 7";"Rachel's Experiment (D.T.)";"1.0";"2";"1";"1";"2";"1";"1";"2014-10-01 13:05:53.029";"2014-10-01 13:23:42.807";"1";"1";"1";"39";"38";"module.training_block1.exec-5095.GoNoGo1";;;;;;;;;;;;;;;;;;;;;;;"1250";"2014-10-01 13:10:05.102";"ST_correctStop";"31";"1";"FINISHED";"NONE";"success";"0";"1";"2014-10-01 13:10:03.851";"3";;;;;;;;;;;;;;;;;;;;;;;;;;;;;;;;;;;;;;;;;;;;;;;;;;;;;;;;;
"Grg170dx";"1996";;"Windows 7";"Rachel's Experiment (D.T.)";"1.0";"2";"1";"1";"2";"1";"1";"2014-10-01 13:05:53.029";"2014-10-01 13:23:42.807";"1";"1";"1";"40";"39";"module.training_block1.exec-5095.GoNoGo1";;;;;;;;;;;;;;;;;;;;;;;"1250";"2014-10-01 13:10:07.693";"NST_correctLoc";"24";"1";"FINISHED";"RIGHT";"success";"494";"0";"2014-10-01 13:10:06.443";"3";;;;;;;;;;;;;;;;;;;;;;;;;;;;;;;;;;;;;;;;;;;;;;;;;;;;;;;;;
"Grg170dx";"1996";;"Windows 7";"Rachel's Experiment (D.T.)";"1.0";"2";"1";"1";"2";"1";"1";"2014-10-01 13:05:53.029";"2014-10-01 13:23:42.807";"1";"1";"1";"41";"40";"module.training_block1.exec-5095.GoNoGo1";;;;;;;;;;;;;;;;;;;;;;;"1249";"2014-10-01 13:10:10.264";"NST_correctLoc";"17";"1";"FINISHED";"RIGHT";"success";"737";"0";"2014-10-01 13:10:09.014";"2";;;;;;;;;;;;;;;;;;;;;;;;;;;;;;;;;;;;;;;;;;;;;;;;;;;;;;;;;
"Grg170dx";"1996";;"Windows 7";"Rachel's Experiment (D.T.)";"1.0";"2";"1";"1";"2";"1";"1";"2014-10-01 13:05:53.029";"2014-10-01 13:23:42.807";"1";"1";"1";"42";"41";"module.training_block1.exec-5095.GoNoGo1";;;;;;;;;;;;;;;;;;;;;;;"1250";"2014-10-01 13:10:12.819";"NST_correctLoc";"30";"0";"FINISHED";"LEFT";"success";"644";"0";"2014-10-01 13:10:11.568";"3";;;;;;;;;;;;;;;;;;;;;;;;;;;;;;;;;;;;;;;;;;;;;;;;;;;;;;;;;
"Grg170dx";"1996";;"Windows 7";"Rachel's Experiment (D.T.)";"1.0";"2";"1";"1";"2";"1";"1";"2014-10-01 13:05:53.029";"2014-10-01 13:23:42.807";"1";"1";"1";"43";"42";"module.training_block1.exec-5095.GoNoGo1";;;;;;;;;;;;;;;;;;;;;;;"1249";"2014-10-01 13:10:15.428";"NST_correctLoc";"33";"0";"FINISHED";"LEFT";"success";"542";"0";"2014-10-01 13:10:14.178";"3";;;;;;;;;;;;;;;;;;;;;;;;;;;;;;;;;;;;;;;;;;;;;;;;;;;;;;;;;
"Grg170dx";"1996";;"Windows 7";"Rachel's Experiment (D.T.)";"1.0";"2";"1";"1";"2";"1";"1";"2014-10-01 13:05:53.029";"2014-10-01 13:23:42.807";"1";"1";"1";"44";"43";"module.training_block1.exec-5095.GoNoGo1";;;;;;;;;;;;;;;;;;;;;;;"1249";"2014-10-01 13:10:17.997";"ST_correctStop";"8";"1";"FINISHED";"NONE";"success";"0";"1";"2014-10-01 13:10:16.747";"1";;;;;;;;;;;;;;;;;;;;;;;;;;;;;;;;;;;;;;;;;;;;;;;;;;;;;;;;;
"Grg170dx";"1996";;"Windows 7";"Rachel's Experiment (D.T.)";"1.0";"2";"1";"1";"2";"1";"1";"2014-10-01 13:05:53.029";"2014-10-01 13:23:42.807";"1";"1";"1";"45";"44";"module.training_block1.exec-5095.GoNoGo1";;;;;;;;;;;;;;;;;;;;;;;"1250";"2014-10-01 13:10:20.562";"ST_correctStop";"6";"0";"FINISHED";"NONE";"success";"0";"1";"2014-10-01 13:10:19.312";"1";;;;;;;;;;;;;;;;;;;;;;;;;;;;;;;;;;;;;;;;;;;;;;;;;;;;;;;;;
"Grg170dx";"1996";;"Windows 7";"Rachel's Experiment (D.T.)";"1.0";"2";"1";"1";"2";"1";"1";"2014-10-01 13:05:53.029";"2014-10-01 13:23:42.807";"1";"1";"1";"46";"45";"module.training_block1.exec-5095.GoNoGo1";;;;;;;;;;;;;;;;;;;;;;;"1250";"2014-10-01 13:10:23.123";"ST_correctStop";"21";"1";"FINISHED";"NONE";"success";"0";"1";"2014-10-01 13:10:21.873";"3";;;;;;;;;;;;;;;;;;;;;;;;;;;;;;;;;;;;;;;;;;;;;;;;;;;;;;;;;
"Grg170dx";"1996";;"Windows 7";"Rachel's Experiment (D.T.)";"1.0";"2";"1";"1";"2";"1";"1";"2014-10-01 13:05:53.029";"2014-10-01 13:23:42.807";"1";"1";"1";"47";"46";"module.training_block1.exec-5095.GoNoGo1";;;;;;;;;;;;;;;;;;;;;;;"1250";"2014-10-01 13:10:25.693";"NST_correctLoc";"15";"1";"FINISHED";"RIGHT";"success";"618";"0";"2014-10-01 13:10:24.443";"2";;;;;;;;;;;;;;;;;;;;;;;;;;;;;;;;;;;;;;;;;;;;;;;;;;;;;;;;;
"Grg170dx";"1996";;"Windows 7";"Rachel's Experiment (D.T.)";"1.0";"2";"1";"1";"2";"1";"1";"2014-10-01 13:05:53.029";"2014-10-01 13:23:42.807";"1";"1";"1";"48";"47";"module.training_block1.exec-5095.GoNoGo1";;;;;;;;;;;;;;;;;;;;;;;"1249";"2014-10-01 13:10:28.260";"NST_correctLoc";"28";"1";"FINISHED";"RIGHT";"success";"774";"0";"2014-10-01 13:10:27.010";"3";;;;;;;;;;;;;;;;;;;;;;;;;;;;;;;;;;;;;;;;;;;;;;;;;;;;;;;;;
"Grg170dx";"1996";;"Windows 7";"Rachel's Experiment (D.T.)";"1.0";"2";"1";"1";"2";"1";"1";"2014-10-01 13:05:53.029";"2014-10-01 13:23:42.807";"1";"1";"1";"49";"48";"module.training_block1.exec-5095.GoNoGo1";;;;;;;;;;;;;;;;;;;;;;;"1249";"2014-10-01 13:10:30.826";"ST_correctStop";"5";"0";"FINISHED";"NONE";"success";"0";"1";"2014-10-01 13:10:29.575";"1";;;;;;;;;;;;;;;;;;;;;;;;;;;;;;;;;;;;;;;;;;;;;;;;;;;;;;;;;
"Grg170dx";"1996";;"Windows 7";"Rachel's Experiment (D.T.)";"1.0";"2";"1";"1";"2";"1";"1";"2014-10-01 13:05:53.029";"2014-10-01 13:23:42.807";"1";"1";"1";"50";"49";"module.training_block1.exec-5095.GoNoGo1";;;;;;;;;;;;;;;;;;;;;;;"1250";"2014-10-01 13:10:33.378";"ST_correctStop";"3";"0";"FINISHED";"NONE";"success";"0";"1";"2014-10-01 13:10:32.128";"1";;;;;;;;;;;;;;;;;;;;;;;;;;;;;;;;;;;;;;;;;;;;;;;;;;;;;;;;;
"Grg170dx";"1996";;"Windows 7";"Rachel's Experiment (D.T.)";"1.0";"2";"1";"1";"2";"1";"1";"2014-10-01 13:05:53.029";"2014-10-01 13:23:42.807";"1";"1";"1";"51";"50";"module.training_block1.exec-5095.GoNoGo1";;;;;;;;;;;;;;;;;;;;;;;"1250";"2014-10-01 13:10:35.968";"ST_correctStop";"7";"0";"FINISHED";"NONE";"success";"0";"1";"2014-10-01 13:10:34.718";"1";;;;;;;;;;;;;;;;;;;;;;;;;;;;;;;;;;;;;;;;;;;;;;;;;;;;;;;;;
"Grg170dx";"1996";;"Windows 7";"Rachel's Experiment (D.T.)";"1.0";"2";"1";"1";"2";"1";"1";"2014-10-01 13:05:53.029";"2014-10-01 13:23:42.807";"1";"1";"1";"52";"51";"module.training_block2.exec-5547.GoNoGo2";;;;;;;;;;;;;;;;;;;;;;;;;;;;;;;;;;;"1249";"2014-10-01 13:10:47.491";"ST_failedStop";"31";"0";"FINISHED";"LEFT";"failure";"578";"1";"2014-10-01 13:10:46.240";"3";;;;;;;;;;;;;;;;;;;;;;;;;;;;;;;;;;;;;;;;;;;;;
"Grg170dx";"1996";;"Windows 7";"Rachel's Experiment (D.T.)";"1.0";"2";"1";"1";"2";"1";"1";"2014-10-01 13:05:53.029";"2014-10-01 13:23:42.807";"1";"1";"1";"53";"52";"module.training_block2.exec-5547.GoNoGo2";;;;;;;;;;;;;;;;;;;;;;;;;;;;;;;;;;;"1249";"2014-10-01 13:10:50.055";"ST_correctStop";"7";"0";"FINISHED";"NONE";"success";"0";"1";"2014-10-01 13:10:48.805";"1";;;;;;;;;;;;;;;;;;;;;;;;;;;;;;;;;;;;;;;;;;;;;
"Grg170dx";"1996";;"Windows 7";"Rachel's Experiment (D.T.)";"1.0";"2";"1";"1";"2";"1";"1";"2014-10-01 13:05:53.029";"2014-10-01 13:23:42.807";"1";"1";"1";"54";"53";"module.training_block2.exec-5547.GoNoGo2";;;;;;;;;;;;;;;;;;;;;;;;;;;;;;;;;;;"1249";"2014-10-01 13:10:52.613";"NST_correctLoc";"24";"0";"FINISHED";"LEFT";"success";"552";"0";"2014-10-01 13:10:51.363";"3";;;;;;;;;;;;;;;;;;;;;;;;;;;;;;;;;;;;;;;;;;;;;
"Grg170dx";"1996";;"Windows 7";"Rachel's Experiment (D.T.)";"1.0";"2";"1";"1";"2";"1";"1";"2014-10-01 13:05:53.029";"2014-10-01 13:23:42.807";"1";"1";"1";"55";"54";"module.training_block2.exec-5547.GoNoGo2";;;;;;;;;;;;;;;;;;;;;;;;;;;;;;;;;;;"1250";"2014-10-01 13:10:55.170";"NST_correctLoc";"17";"0";"FINISHED";"LEFT";"success";"704";"0";"2014-10-01 13:10:53.920";"2";;;;;;;;;;;;;;;;;;;;;;;;;;;;;;;;;;;;;;;;;;;;;
"Grg170dx";"1996";;"Windows 7";"Rachel's Experiment (D.T.)";"1.0";"2";"1";"1";"2";"1";"1";"2014-10-01 13:05:53.029";"2014-10-01 13:23:42.807";"1";"1";"1";"56";"55";"module.training_block2.exec-5547.GoNoGo2";;;;;;;;;;;;;;;;;;;;;;;;;;;;;;;;;;;"1249";"2014-10-01 13:10:57.739";"NST_correctLoc";"15";"0";"FINISHED";"LEFT";"success";"539";"0";"2014-10-01 13:10:56.489";"2";;;;;;;;;;;;;;;;;;;;;;;;;;;;;;;;;;;;;;;;;;;;;
"Grg170dx";"1996";;"Windows 7";"Rachel's Experiment (D.T.)";"1.0";"2";"1";"1";"2";"1";"1";"2014-10-01 13:05:53.029";"2014-10-01 13:23:42.807";"1";"1";"1";"57";"56";"module.training_block2.exec-5547.GoNoGo2";;;;;;;;;;;;;;;;;;;;;;;;;;;;;;;;;;;"1250";"2014-10-01 13:11:00.295";"ST_correctStop";"6";"0";"FINISHED";"NONE";"success";"0";"1";"2014-10-01 13:10:59.045";"1";;;;;;;;;;;;;;;;;;;;;;;;;;;;;;;;;;;;;;;;;;;;;
"Grg170dx";"1996";;"Windows 7";"Rachel's Experiment (D.T.)";"1.0";"2";"1";"1";"2";"1";"1";"2014-10-01 13:05:53.029";"2014-10-01 13:23:42.807";"1";"1";"1";"58";"57";"module.training_block2.exec-5547.GoNoGo2";;;;;;;;;;;;;;;;;;;;;;;;;;;;;;;;;;;"1250";"2014-10-01 13:11:02.854";"NST_correctLoc";"32";"1";"FINISHED";"RIGHT";"success";"576";"0";"2014-10-01 13:11:01.604";"3";;;;;;;;;;;;;;;;;;;;;;;;;;;;;;;;;;;;;;;;;;;;;
"Grg170dx";"1996";;"Windows 7";"Rachel's Experiment (D.T.)";"1.0";"2";"1";"1";"2";"1";"1";"2014-10-01 13:05:53.029";"2014-10-01 13:23:42.807";"1";"1";"1";"59";"58";"module.training_block2.exec-5547.GoNoGo2";;;;;;;;;;;;;;;;;;;;;;;;;;;;;;;;;;;"1250";"2014-10-01 13:11:05.415";"ST_correctStop";"4";"1";"FINISHED";"NONE";"success";"0";"1";"2014-10-01 13:11:04.164";"1";;;;;;;;;;;;;;;;;;;;;;;;;;;;;;;;;;;;;;;;;;;;;
"Grg170dx";"1996";;"Windows 7";"Rachel's Experiment (D.T.)";"1.0";"2";"1";"1";"2";"1";"1";"2014-10-01 13:05:53.029";"2014-10-01 13:23:42.807";"1";"1";"1";"60";"59";"module.training_block2.exec-5547.GoNoGo2";;;;;;;;;;;;;;;;;;;;;;;;;;;;;;;;;;;"1250";"2014-10-01 13:11:07.972";"ST_correctStop";"8";"1";"FINISHED";"NONE";"success";"0";"1";"2014-10-01 13:11:06.722";"1";;;;;;;;;;;;;;;;;;;;;;;;;;;;;;;;;;;;;;;;;;;;;
"Grg170dx";"1996";;"Windows 7";"Rachel's Experiment (D.T.)";"1.0";"2";"1";"1";"2";"1";"1";"2014-10-01 13:05:53.029";"2014-10-01 13:23:42.807";"1";"1";"1";"61";"60";"module.training_block2.exec-5547.GoNoGo2";;;;;;;;;;;;;;;;;;;;;;;;;;;;;;;;;;;"1250";"2014-10-01 13:11:10.529";"ST_correctStop";"2";"1";"FINISHED";"NONE";"success";"0";"1";"2014-10-01 13:11:09.279";"1";;;;;;;;;;;;;;;;;;;;;;;;;;;;;;;;;;;;;;;;;;;;;
"Grg170dx";"1996";;"Windows 7";"Rachel's Experiment (D.T.)";"1.0";"2";"1";"1";"2";"1";"1";"2014-10-01 13:05:53.029";"2014-10-01 13:23:42.807";"1";"1";"1";"62";"61";"module.training_block2.exec-5547.GoNoGo2";;;;;;;;;;;;;;;;;;;;;;;;;;;;;;;;;;;"1250";"2014-10-01 13:11:13.085";"ST_correctStop";"5";"1";"FINISHED";"NONE";"success";"0";"1";"2014-10-01 13:11:11.835";"1";;;;;;;;;;;;;;;;;;;;;;;;;;;;;;;;;;;;;;;;;;;;;
"Grg170dx";"1996";;"Windows 7";"Rachel's Experiment (D.T.)";"1.0";"2";"1";"1";"2";"1";"1";"2014-10-01 13:05:53.029";"2014-10-01 13:23:42.807";"1";"1";"1";"63";"62";"module.training_block2.exec-5547.GoNoGo2";;;;;;;;;;;;;;;;;;;;;;;;;;;;;;;;;;;"1249";"2014-10-01 13:11:15.640";"NST_correctLoc";"10";"0";"FINISHED";"LEFT";"success";"625";"0";"2014-10-01 13:11:14.390";"2";;;;;;;;;;;;;;;;;;;;;;;;;;;;;;;;;;;;;;;;;;;;;
"Grg170dx";"1996";;"Windows 7";"Rachel's Experiment (D.T.)";"1.0";"2";"1";"1";"2";"1";"1";"2014-10-01 13:05:53.029";"2014-10-01 13:23:42.807";"1";"1";"1";"64";"63";"module.training_block2.exec-5547.GoNoGo2";;;;;;;;;;;;;;;;;;;;;;;;;;;;;;;;;;;"1250";"2014-10-01 13:11:18.195";"NST_correctLoc";"26";"0";"FINISHED";"LEFT";"success";"465";"0";"2014-10-01 13:11:16.945";"3";;;;;;;;;;;;;;;;;;;;;;;;;;;;;;;;;;;;;;;;;;;;;
"Grg170dx";"1996";;"Windows 7";"Rachel's Experiment (D.T.)";"1.0";"2";"1";"1";"2";"1";"1";"2014-10-01 13:05:53.029";"2014-10-01 13:23:42.807";"1";"1";"1";"65";"64";"module.training_block2.exec-5547.GoNoGo2";;;;;;;;;;;;;;;;;;;;;;;;;;;;;;;;;;;"1250";"2014-10-01 13:11:20.748";"ST_correctStop";"0";"0";"FINISHED";"NONE";"success";"0";"1";"2014-10-01 13:11:19.498";"1";;;;;;;;;;;;;;;;;;;;;;;;;;;;;;;;;;;;;;;;;;;;;
"Grg170dx";"1996";;"Windows 7";"Rachel's Experiment (D.T.)";"1.0";"2";"1";"1";"2";"1";"1";"2014-10-01 13:05:53.029";"2014-10-01 13:23:42.807";"1";"1";"1";"66";"65";"module.training_block2.exec-5547.GoNoGo2";;;;;;;;;;;;;;;;;;;;;;;;;;;;;;;;;;;"1250";"2014-10-01 13:11:23.303";"NST_correctLoc";"16";"1";"FINISHED";"RIGHT";"success";"462";"0";"2014-10-01 13:11:22.052";"2";;;;;;;;;;;;;;;;;;;;;;;;;;;;;;;;;;;;;;;;;;;;;
"Grg170dx";"1996";;"Windows 7";"Rachel's Experiment (D.T.)";"1.0";"2";"1";"1";"2";"1";"1";"2014-10-01 13:05:53.029";"2014-10-01 13:23:42.807";"1";"1";"1";"67";"66";"module.training_block2.exec-5547.GoNoGo2";;;;;;;;;;;;;;;;;;;;;;;;;;;;;;;;;;;"1250";"2014-10-01 13:11:25.856";"ST_correctStop";"34";"1";"FINISHED";"NONE";"success";"0";"1";"2014-10-01 13:11:24.606";"3";;;;;;;;;;;;;;;;;;;;;;;;;;;;;;;;;;;;;;;;;;;;;
"Grg170dx";"1996";;"Windows 7";"Rachel's Experiment (D.T.)";"1.0";"2";"1";"1";"2";"1";"1";"2014-10-01 13:05:53.029";"2014-10-01 13:23:42.807";"1";"1";"1";"68";"67";"module.training_block2.exec-5547.GoNoGo2";;;;;;;;;;;;;;;;;;;;;;;;;;;;;;;;;;;"1250";"2014-10-01 13:11:28.408";"ST_correctStop";"35";"1";"FINISHED";"NONE";"success";"0";"1";"2014-10-01 13:11:27.158";"3";;;;;;;;;;;;;;;;;;;;;;;;;;;;;;;;;;;;;;;;;;;;;
"Grg170dx";"1996";;"Windows 7";"Rachel's Experiment (D.T.)";"1.0";"2";"1";"1";"2";"1";"1";"2014-10-01 13:05:53.029";"2014-10-01 13:23:42.807";"1";"1";"1";"69";"68";"module.training_block2.exec-5547.GoNoGo2";;;;;;;;;;;;;;;;;;;;;;;;;;;;;;;;;;;"1249";"2014-10-01 13:11:30.962";"NST_correctLoc";"19";"0";"FINISHED";"LEFT";"success";"558";"0";"2014-10-01 13:11:29.712";"3";;;;;;;;;;;;;;;;;;;;;;;;;;;;;;;;;;;;;;;;;;;;;
"Grg170dx";"1996";;"Windows 7";"Rachel's Experiment (D.T.)";"1.0";"2";"1";"1";"2";"1";"1";"2014-10-01 13:05:53.029";"2014-10-01 13:23:42.807";"1";"1";"1";"70";"69";"module.training_block2.exec-5547.GoNoGo2";;;;;;;;;;;;;;;;;;;;;;;;;;;;;;;;;;;"1250";"2014-10-01 13:11:33.514";"NST_miss";"9";"1";"FINISHED";"NONE";"failure";"0";"0";"2014-10-01 13:11:32.264";"2";;;;;;;;;;;;;;;;;;;;;;;;;;;;;;;;;;;;;;;;;;;;;
"Grg170dx";"1996";;"Windows 7";"Rachel's Experiment (D.T.)";"1.0";"2";"1";"1";"2";"1";"1";"2014-10-01 13:05:53.029";"2014-10-01 13:23:42.807";"1";"1";"1";"71";"70";"module.training_block2.exec-5547.GoNoGo2";;;;;;;;;;;;;;;;;;;;;;;;;;;;;;;;;;;"1250";"2014-10-01 13:11:36.065";"NST_correctLoc";"18";"0";"FINISHED";"LEFT";"success";"544";"0";"2014-10-01 13:11:34.815";"3";;;;;;;;;;;;;;;;;;;;;;;;;;;;;;;;;;;;;;;;;;;;;
"Grg170dx";"1996";;"Windows 7";"Rachel's Experiment (D.T.)";"1.0";"2";"1";"1";"2";"1";"1";"2014-10-01 13:05:53.029";"2014-10-01 13:23:42.807";"1";"1";"1";"72";"71";"module.training_block2.exec-5547.GoNoGo2";;;;;;;;;;;;;;;;;;;;;;;;;;;;;;;;;;;"1249";"2014-10-01 13:11:38.616";"NST_correctLoc";"25";"0";"FINISHED";"LEFT";"success";"532";"0";"2014-10-01 13:11:37.366";"3";;;;;;;;;;;;;;;;;;;;;;;;;;;;;;;;;;;;;;;;;;;;;
"Grg170dx";"1996";;"Windows 7";"Rachel's Experiment (D.T.)";"1.0";"2";"1";"1";"2";"1";"1";"2014-10-01 13:05:53.029";"2014-10-01 13:23:42.807";"1";"1";"1";"73";"72";"module.training_block2.exec-5547.GoNoGo2";;;;;;;;;;;;;;;;;;;;;;;;;;;;;;;;;;;"1249";"2014-10-01 13:11:41.170";"ST_correctStop";"20";"1";"FINISHED";"NONE";"success";"0";"1";"2014-10-01 13:11:39.920";"3";;;;;;;;;;;;;;;;;;;;;;;;;;;;;;;;;;;;;;;;;;;;;
"Grg170dx";"1996";;"Windows 7";"Rachel's Experiment (D.T.)";"1.0";"2";"1";"1";"2";"1";"1";"2014-10-01 13:05:53.029";"2014-10-01 13:23:42.807";"1";"1";"1";"74";"73";"module.training_block2.exec-5547.GoNoGo2";;;;;;;;;;;;;;;;;;;;;;;;;;;;;;;;;;;"1249";"2014-10-01 13:11:43.722";"NST_correctLoc";"22";"1";"FINISHED";"RIGHT";"success";"523";"0";"2014-10-01 13:11:42.472";"3";;;;;;;;;;;;;;;;;;;;;;;;;;;;;;;;;;;;;;;;;;;;;
"Grg170dx";"1996";;"Windows 7";"Rachel's Experiment (D.T.)";"1.0";"2";"1";"1";"2";"1";"1";"2014-10-01 13:05:53.029";"2014-10-01 13:23:42.807";"1";"1";"1";"75";"74";"module.training_block2.exec-5547.GoNoGo2";;;;;;;;;;;;;;;;;;;;;;;;;;;;;;;;;;;"1249";"2014-10-01 13:11:46.835";"NST_correctLoc";"12";"1";"FINISHED";"RIGHT";"success";"427";"0";"2014-10-01 13:11:45.585";"2";;;;;;;;;;;;;;;;;;;;;;;;;;;;;;;;;;;;;;;;;;;;;
"Grg170dx";"1996";;"Windows 7";"Rachel's Experiment (D.T.)";"1.0";"2";"1";"1";"2";"1";"1";"2014-10-01 13:05:53.029";"2014-10-01 13:23:42.807";"1";"1";"1";"76";"75";"module.training_block2.exec-5547.GoNoGo2";;;;;;;;;;;;;;;;;;;;;;;;;;;;;;;;;;;"1250";"2014-10-01 13:11:49.395";"ST_correctStop";"21";"0";"FINISHED";"NONE";"success";"0";"1";"2014-10-01 13:11:48.145";"3";;;;;;;;;;;;;;;;;;;;;;;;;;;;;;;;;;;;;;;;;;;;;
"Grg170dx";"1996";;"Windows 7";"Rachel's Experiment (D.T.)";"1.0";"2";"1";"1";"2";"1";"1";"2014-10-01 13:05:53.029";"2014-10-01 13:23:42.807";"1";"1";"1";"77";"76";"module.training_block2.exec-5547.GoNoGo2";;;;;;;;;;;;;;;;;;;;;;;;;;;;;;;;;;;"1249";"2014-10-01 13:11:51.953";"ST_correctStop";"29";"0";"FINISHED";"NONE";"success";"0";"1";"2014-10-01 13:11:50.703";"3";;;;;;;;;;;;;;;;;;;;;;;;;;;;;;;;;;;;;;;;;;;;;
"Grg170dx";"1996";;"Windows 7";"Rachel's Experiment (D.T.)";"1.0";"2";"1";"1";"2";"1";"1";"2014-10-01 13:05:53.029";"2014-10-01 13:23:42.807";"1";"1";"1";"78";"77";"module.training_block2.exec-5547.GoNoGo2";;;;;;;;;;;;;;;;;;;;;;;;;;;;;;;;;;;"1249";"2014-10-01 13:11:54.513";"NST_correctLoc";"23";"0";"FINISHED";"LEFT";"success";"592";"0";"2014-10-01 13:11:53.263";"3";;;;;;;;;;;;;;;;;;;;;;;;;;;;;;;;;;;;;;;;;;;;;
"Grg170dx";"1996";;"Windows 7";"Rachel's Experiment (D.T.)";"1.0";"2";"1";"1";"2";"1";"1";"2014-10-01 13:05:53.029";"2014-10-01 13:23:42.807";"1";"1";"1";"79";"78";"module.training_block2.exec-5547.GoNoGo2";;;;;;;;;;;;;;;;;;;;;;;;;;;;;;;;;;;"1250";"2014-10-01 13:11:57.105";"ST_correctStop";"33";"1";"FINISHED";"NONE";"success";"0";"1";"2014-10-01 13:11:55.855";"3";;;;;;;;;;;;;;;;;;;;;;;;;;;;;;;;;;;;;;;;;;;;;
"Grg170dx";"1996";;"Windows 7";"Rachel's Experiment (D.T.)";"1.0";"2";"1";"1";"2";"1";"1";"2014-10-01 13:05:53.029";"2014-10-01 13:23:42.807";"1";"1";"1";"80";"79";"module.training_block2.exec-5547.GoNoGo2";;;;;;;;;;;;;;;;;;;;;;;;;;;;;;;;;;;"1250";"2014-10-01 13:11:59.664";"ST_correctStop";"27";"1";"FINISHED";"NONE";"success";"0";"1";"2014-10-01 13:11:58.414";"3";;;;;;;;;;;;;;;;;;;;;;;;;;;;;;;;;;;;;;;;;;;;;
"Grg170dx";"1996";;"Windows 7";"Rachel's Experiment (D.T.)";"1.0";"2";"1";"1";"2";"1";"1";"2014-10-01 13:05:53.029";"2014-10-01 13:23:42.807";"1";"1";"1";"81";"80";"module.training_block2.exec-5547.GoNoGo2";;;;;;;;;;;;;;;;;;;;;;;;;;;;;;;;;;;"1250";"2014-10-01 13:12:02.220";"ST_correctStop";"1";"0";"FINISHED";"NONE";"success";"0";"1";"2014-10-01 13:12:00.970";"1";;;;;;;;;;;;;;;;;;;;;;;;;;;;;;;;;;;;;;;;;;;;;
"Grg170dx";"1996";;"Windows 7";"Rachel's Experiment (D.T.)";"1.0";"2";"1";"1";"2";"1";"1";"2014-10-01 13:05:53.029";"2014-10-01 13:23:42.807";"1";"1";"1";"82";"81";"module.training_block2.exec-5547.GoNoGo2";;;;;;;;;;;;;;;;;;;;;;;;;;;;;;;;;;;"1249";"2014-10-01 13:12:04.777";"NST_correctLoc";"14";"1";"FINISHED";"RIGHT";"success";"425";"0";"2014-10-01 13:12:03.527";"2";;;;;;;;;;;;;;;;;;;;;;;;;;;;;;;;;;;;;;;;;;;;;
"Grg170dx";"1996";;"Windows 7";"Rachel's Experiment (D.T.)";"1.0";"2";"1";"1";"2";"1";"1";"2014-10-01 13:05:53.029";"2014-10-01 13:23:42.807";"1";"1";"1";"83";"82";"module.training_block2.exec-5547.GoNoGo2";;;;;;;;;;;;;;;;;;;;;;;;;;;;;;;;;;;"1249";"2014-10-01 13:12:07.332";"NST_correctLoc";"28";"1";"FINISHED";"RIGHT";"success";"458";"0";"2014-10-01 13:12:06.082";"3";;;;;;;;;;;;;;;;;;;;;;;;;;;;;;;;;;;;;;;;;;;;;
"Grg170dx";"1996";;"Windows 7";"Rachel's Experiment (D.T.)";"1.0";"2";"1";"1";"2";"1";"1";"2014-10-01 13:05:53.029";"2014-10-01 13:23:42.807";"1";"1";"1";"84";"83";"module.training_block2.exec-5547.GoNoGo2";;;;;;;;;;;;;;;;;;;;;;;;;;;;;;;;;;;"1250";"2014-10-01 13:12:09.888";"NST_correctLoc";"11";"1";"FINISHED";"RIGHT";"success";"478";"0";"2014-10-01 13:12:08.638";"2";;;;;;;;;;;;;;;;;;;;;;;;;;;;;;;;;;;;;;;;;;;;;
"Grg170dx";"1996";;"Windows 7";"Rachel's Experiment (D.T.)";"1.0";"2";"1";"1";"2";"1";"1";"2014-10-01 13:05:53.029";"2014-10-01 13:23:42.807";"1";"1";"1";"85";"84";"module.training_block2.exec-5547.GoNoGo2";;;;;;;;;;;;;;;;;;;;;;;;;;;;;;;;;;;"1249";"2014-10-01 13:12:12.454";"ST_correctStop";"30";"1";"FINISHED";"NONE";"success";"0";"1";"2014-10-01 13:12:11.204";"3";;;;;;;;;;;;;;;;;;;;;;;;;;;;;;;;;;;;;;;;;;;;;
"Grg170dx";"1996";;"Windows 7";"Rachel's Experiment (D.T.)";"1.0";"2";"1";"1";"2";"1";"1";"2014-10-01 13:05:53.029";"2014-10-01 13:23:42.807";"1";"1";"1";"86";"85";"module.training_block2.exec-5547.GoNoGo2";;;;;;;;;;;;;;;;;;;;;;;;;;;;;;;;;;;"1249";"2014-10-01 13:12:15.011";"NST_correctLoc";"13";"0";"FINISHED";"LEFT";"success";"524";"0";"2014-10-01 13:12:13.760";"2";;;;;;;;;;;;;;;;;;;;;;;;;;;;;;;;;;;;;;;;;;;;;
"Grg170dx";"1996";;"Windows 7";"Rachel's Experiment (D.T.)";"1.0";"2";"1";"1";"2";"1";"1";"2014-10-01 13:05:53.029";"2014-10-01 13:23:42.807";"1";"1";"1";"87";"86";"module.training_block2.exec-5547.GoNoGo2";;;;;;;;;;;;;;;;;;;;;;;;;;;;;;;;;;;"1249";"2014-10-01 13:12:17.573";"ST_correctStop";"3";"0";"FINISHED";"NONE";"success";"0";"1";"2014-10-01 13:12:16.323";"1";;;;;;;;;;;;;;;;;;;;;;;;;;;;;;;;;;;;;;;;;;;;;
"Grg170dx";"1996";;"Windows 7";"Rachel's Experiment (D.T.)";"1.0";"2";"1";"1";"2";"1";"1";"2014-10-01 13:05:53.029";"2014-10-01 13:23:42.807";"1";"1";"1";"88";"87";"module.training_block3.exec-3651.GoNoGo3";;;;;;;;;;;;;;;;;;;;;;;;;;;;;;;;;;;;;;;;;;;;;;;"1250";"2014-10-01 13:12:39.842";"ST_correctStop";"1";"1";"FINISHED";"NONE";"success";"0";"1";"2014-10-01 13:12:38.592";"1";;;;;;;;;;;;;;;;;;;;;;;;;;;;;;;;;
"Grg170dx";"1996";;"Windows 7";"Rachel's Experiment (D.T.)";"1.0";"2";"1";"1";"2";"1";"1";"2014-10-01 13:05:53.029";"2014-10-01 13:23:42.807";"1";"1";"1";"89";"88";"module.training_block3.exec-3651.GoNoGo3";;;;;;;;;;;;;;;;;;;;;;;;;;;;;;;;;;;;;;;;;;;;;;;"1250";"2014-10-01 13:12:42.399";"ST_correctStop";"20";"0";"FINISHED";"NONE";"success";"0";"1";"2014-10-01 13:12:41.149";"3";;;;;;;;;;;;;;;;;;;;;;;;;;;;;;;;;
"Grg170dx";"1996";;"Windows 7";"Rachel's Experiment (D.T.)";"1.0";"2";"1";"1";"2";"1";"1";"2014-10-01 13:05:53.029";"2014-10-01 13:23:42.807";"1";"1";"1";"90";"89";"module.training_block3.exec-3651.GoNoGo3";;;;;;;;;;;;;;;;;;;;;;;;;;;;;;;;;;;;;;;;;;;;;;;"1250";"2014-10-01 13:12:44.954";"NST_correctLoc";"18";"1";"FINISHED";"RIGHT";"success";"483";"0";"2014-10-01 13:12:43.704";"3";;;;;;;;;;;;;;;;;;;;;;;;;;;;;;;;;
"Grg170dx";"1996";;"Windows 7";"Rachel's Experiment (D.T.)";"1.0";"2";"1";"1";"2";"1";"1";"2014-10-01 13:05:53.029";"2014-10-01 13:23:42.807";"1";"1";"1";"91";"90";"module.training_block3.exec-3651.GoNoGo3";;;;;;;;;;;;;;;;;;;;;;;;;;;;;;;;;;;;;;;;;;;;;;;"1249";"2014-10-01 13:12:47.511";"ST_correctStop";"6";"1";"FINISHED";"NONE";"success";"0";"1";"2014-10-01 13:12:46.261";"1";;;;;;;;;;;;;;;;;;;;;;;;;;;;;;;;;
"Grg170dx";"1996";;"Windows 7";"Rachel's Experiment (D.T.)";"1.0";"2";"1";"1";"2";"1";"1";"2014-10-01 13:05:53.029";"2014-10-01 13:23:42.807";"1";"1";"1";"92";"91";"module.training_block3.exec-3651.GoNoGo3";;;;;;;;;;;;;;;;;;;;;;;;;;;;;;;;;;;;;;;;;;;;;;;"1249";"2014-10-01 13:12:50.058";"ST_correctStop";"7";"1";"FINISHED";"NONE";"success";"0";"1";"2014-10-01 13:12:48.807";"1";;;;;;;;;;;;;;;;;;;;;;;;;;;;;;;;;
"Grg170dx";"1996";;"Windows 7";"Rachel's Experiment (D.T.)";"1.0";"2";"1";"1";"2";"1";"1";"2014-10-01 13:05:53.029";"2014-10-01 13:23:42.807";"1";"1";"1";"93";"92";"module.training_block3.exec-3651.GoNoGo3";;;;;;;;;;;;;;;;;;;;;;;;;;;;;;;;;;;;;;;;;;;;;;;"1250";"2014-10-01 13:12:52.617";"NST_correctLoc";"32";"0";"FINISHED";"LEFT";"success";"548";"0";"2014-10-01 13:12:51.367";"3";;;;;;;;;;;;;;;;;;;;;;;;;;;;;;;;;
"Grg170dx";"1996";;"Windows 7";"Rachel's Experiment (D.T.)";"1.0";"2";"1";"1";"2";"1";"1";"2014-10-01 13:05:53.029";"2014-10-01 13:23:42.807";"1";"1";"1";"94";"93";"module.training_block3.exec-3651.GoNoGo3";;;;;;;;;;;;;;;;;;;;;;;;;;;;;;;;;;;;;;;;;;;;;;;"1249";"2014-10-01 13:12:55.162";"NST_correctLoc";"11";"0";"FINISHED";"LEFT";"success";"542";"0";"2014-10-01 13:12:53.912";"2";;;;;;;;;;;;;;;;;;;;;;;;;;;;;;;;;
"Grg170dx";"1996";;"Windows 7";"Rachel's Experiment (D.T.)";"1.0";"2";"1";"1";"2";"1";"1";"2014-10-01 13:05:53.029";"2014-10-01 13:23:42.807";"1";"1";"1";"95";"94";"module.training_block3.exec-3651.GoNoGo3";;;;;;;;;;;;;;;;;;;;;;;;;;;;;;;;;;;;;;;;;;;;;;;"1249";"2014-10-01 13:12:57.720";"ST_correctStop";"8";"0";"FINISHED";"NONE";"success";"0";"1";"2014-10-01 13:12:56.470";"1";;;;;;;;;;;;;;;;;;;;;;;;;;;;;;;;;
"Grg170dx";"1996";;"Windows 7";"Rachel's Experiment (D.T.)";"1.0";"2";"1";"1";"2";"1";"1";"2014-10-01 13:05:53.029";"2014-10-01 13:23:42.807";"1";"1";"1";"96";"95";"module.training_block3.exec-3651.GoNoGo3";;;;;;;;;;;;;;;;;;;;;;;;;;;;;;;;;;;;;;;;;;;;;;;"1250";"2014-10-01 13:13:00.267";"ST_correctStop";"3";"1";"FINISHED";"NONE";"success";"0";"1";"2014-10-01 13:12:59.017";"1";;;;;;;;;;;;;;;;;;;;;;;;;;;;;;;;;
"Grg170dx";"1996";;"Windows 7";"Rachel's Experiment (D.T.)";"1.0";"2";"1";"1";"2";"1";"1";"2014-10-01 13:05:53.029";"2014-10-01 13:23:42.807";"1";"1";"1";"97";"96";"module.training_block3.exec-3651.GoNoGo3";;;;;;;;;;;;;;;;;;;;;;;;;;;;;;;;;;;;;;;;;;;;;;;"1250";"2014-10-01 13:13:02.814";"ST_correctStop";"30";"1";"FINISHED";"NONE";"success";"0";"1";"2014-10-01 13:13:01.564";"3";;;;;;;;;;;;;;;;;;;;;;;;;;;;;;;;;
"Grg170dx";"1996";;"Windows 7";"Rachel's Experiment (D.T.)";"1.0";"2";"1";"1";"2";"1";"1";"2014-10-01 13:05:53.029";"2014-10-01 13:23:42.807";"1";"1";"1";"98";"97";"module.training_block3.exec-3651.GoNoGo3";;;;;;;;;;;;;;;;;;;;;;;;;;;;;;;;;;;;;;;;;;;;;;;"1249";"2014-10-01 13:13:05.360";"NST_correctLoc";"28";"1";"FINISHED";"RIGHT";"success";"498";"0";"2014-10-01 13:13:04.110";"3";;;;;;;;;;;;;;;;;;;;;;;;;;;;;;;;;
"Grg170dx";"1996";;"Windows 7";"Rachel's Experiment (D.T.)";"1.0";"2";"1";"1";"2";"1";"1";"2014-10-01 13:05:53.029";"2014-10-01 13:23:42.807";"1";"1";"1";"99";"98";"module.training_block3.exec-3651.GoNoGo3";;;;;;;;;;;;;;;;;;;;;;;;;;;;;;;;;;;;;;;;;;;;;;;"1249";"2014-10-01 13:13:07.928";"ST_correctStop";"2";"0";"FINISHED";"NONE";"success";"0";"1";"2014-10-01 13:13:06.677";"1";;;;;;;;;;;;;;;;;;;;;;;;;;;;;;;;;
"Grg170dx";"1996";;"Windows 7";"Rachel's Experiment (D.T.)";"1.0";"2";"1";"1";"2";"1";"1";"2014-10-01 13:05:53.029";"2014-10-01 13:23:42.807";"1";"1";"1";"100";"99";"module.training_block3.exec-3651.GoNoGo3";;;;;;;;;;;;;;;;;;;;;;;;;;;;;;;;;;;;;;;;;;;;;;;"1250";"2014-10-01 13:13:10.482";"NST_correctLoc";"19";"1";"FINISHED";"RIGHT";"success";"673";"0";"2014-10-01 13:13:09.232";"3";;;;;;;;;;;;;;;;;;;;;;;;;;;;;;;;;
"Grg170dx";"1996";;"Windows 7";"Rachel's Experiment (D.T.)";"1.0";"2";"1";"1";"2";"1";"1";"2014-10-01 13:05:53.029";"2014-10-01 13:23:42.807";"1";"1";"1";"101";"100";"module.training_block3.exec-3651.GoNoGo3";;;;;;;;;;;;;;;;;;;;;;;;;;;;;;;;;;;;;;;;;;;;;;;"1250";"2014-10-01 13:13:13.035";"NST_correctLoc";"15";"1";"FINISHED";"RIGHT";"success";"857";"0";"2014-10-01 13:13:11.785";"2";;;;;;;;;;;;;;;;;;;;;;;;;;;;;;;;;
"Grg170dx";"1996";;"Windows 7";"Rachel's Experiment (D.T.)";"1.0";"2";"1";"1";"2";"1";"1";"2014-10-01 13:05:53.029";"2014-10-01 13:23:42.807";"1";"1";"1";"102";"101";"module.training_block3.exec-3651.GoNoGo3";;;;;;;;;;;;;;;;;;;;;;;;;;;;;;;;;;;;;;;;;;;;;;;"1249";"2014-10-01 13:13:15.582";"NST_correctLoc";"14";"1";"FINISHED";"RIGHT";"success";"675";"0";"2014-10-01 13:13:14.332";"2";;;;;;;;;;;;;;;;;;;;;;;;;;;;;;;;;
"Grg170dx";"1996";;"Windows 7";"Rachel's Experiment (D.T.)";"1.0";"2";"1";"1";"2";"1";"1";"2014-10-01 13:05:53.029";"2014-10-01 13:23:42.807";"1";"1";"1";"103";"102";"module.training_block3.exec-3651.GoNoGo3";;;;;;;;;;;;;;;;;;;;;;;;;;;;;;;;;;;;;;;;;;;;;;;"1249";"2014-10-01 13:13:18.139";"ST_correctStop";"34";"0";"FINISHED";"NONE";"success";"0";"1";"2014-10-01 13:13:16.889";"3";;;;;;;;;;;;;;;;;;;;;;;;;;;;;;;;;
"Grg170dx";"1996";;"Windows 7";"Rachel's Experiment (D.T.)";"1.0";"2";"1";"1";"2";"1";"1";"2014-10-01 13:05:53.029";"2014-10-01 13:23:42.807";"1";"1";"1";"104";"103";"module.training_block3.exec-3651.GoNoGo3";;;;;;;;;;;;;;;;;;;;;;;;;;;;;;;;;;;;;;;;;;;;;;;"1249";"2014-10-01 13:13:20.705";"ST_correctStop";"5";"1";"FINISHED";"NONE";"success";"0";"1";"2014-10-01 13:13:19.455";"1";;;;;;;;;;;;;;;;;;;;;;;;;;;;;;;;;
"Grg170dx";"1996";;"Windows 7";"Rachel's Experiment (D.T.)";"1.0";"2";"1";"1";"2";"1";"1";"2014-10-01 13:05:53.029";"2014-10-01 13:23:42.807";"1";"1";"1";"105";"104";"module.training_block3.exec-3651.GoNoGo3";;;;;;;;;;;;;;;;;;;;;;;;;;;;;;;;;;;;;;;;;;;;;;;"1249";"2014-10-01 13:13:23.263";"ST_correctStop";"4";"1";"FINISHED";"NONE";"success";"0";"1";"2014-10-01 13:13:22.013";"1";;;;;;;;;;;;;;;;;;;;;;;;;;;;;;;;;
"Grg170dx";"1996";;"Windows 7";"Rachel's Experiment (D.T.)";"1.0";"2";"1";"1";"2";"1";"1";"2014-10-01 13:05:53.029";"2014-10-01 13:23:42.807";"1";"1";"1";"106";"105";"module.training_block3.exec-3651.GoNoGo3";;;;;;;;;;;;;;;;;;;;;;;;;;;;;;;;;;;;;;;;;;;;;;;"1249";"2014-10-01 13:13:25.820";"NST_correctLoc";"35";"1";"FINISHED";"RIGHT";"success";"476";"0";"2014-10-01 13:13:24.569";"3";;;;;;;;;;;;;;;;;;;;;;;;;;;;;;;;;
"Grg170dx";"1996";;"Windows 7";"Rachel's Experiment (D.T.)";"1.0";"2";"1";"1";"2";"1";"1";"2014-10-01 13:05:53.029";"2014-10-01 13:23:42.807";"1";"1";"1";"107";"106";"module.training_block3.exec-3651.GoNoGo3";;;;;;;;;;;;;;;;;;;;;;;;;;;;;;;;;;;;;;;;;;;;;;;"1249";"2014-10-01 13:13:28.376";"ST_correctStop";"26";"0";"FINISHED";"NONE";"success";"0";"1";"2014-10-01 13:13:27.126";"3";;;;;;;;;;;;;;;;;;;;;;;;;;;;;;;;;
"Grg170dx";"1996";;"Windows 7";"Rachel's Experiment (D.T.)";"1.0";"2";"1";"1";"2";"1";"1";"2014-10-01 13:05:53.029";"2014-10-01 13:23:42.807";"1";"1";"1";"108";"107";"module.training_block3.exec-3651.GoNoGo3";;;;;;;;;;;;;;;;;;;;;;;;;;;;;;;;;;;;;;;;;;;;;;;"1250";"2014-10-01 13:13:30.935";"NST_correctLoc";"17";"0";"FINISHED";"LEFT";"success";"621";"0";"2014-10-01 13:13:29.684";"2";;;;;;;;;;;;;;;;;;;;;;;;;;;;;;;;;
"Grg170dx";"1996";;"Windows 7";"Rachel's Experiment (D.T.)";"1.0";"2";"1";"1";"2";"1";"1";"2014-10-01 13:05:53.029";"2014-10-01 13:23:42.807";"1";"1";"1";"109";"108";"module.training_block3.exec-3651.GoNoGo3";;;;;;;;;;;;;;;;;;;;;;;;;;;;;;;;;;;;;;;;;;;;;;;"1250";"2014-10-01 13:13:33.489";"ST_correctStop";"0";"0";"FINISHED";"NONE";"success";"0";"1";"2014-10-01 13:13:32.238";"1";;;;;;;;;;;;;;;;;;;;;;;;;;;;;;;;;
"Grg170dx";"1996";;"Windows 7";"Rachel's Experiment (D.T.)";"1.0";"2";"1";"1";"2";"1";"1";"2014-10-01 13:05:53.029";"2014-10-01 13:23:42.807";"1";"1";"1";"110";"109";"module.training_block3.exec-3651.GoNoGo3";;;;;;;;;;;;;;;;;;;;;;;;;;;;;;;;;;;;;;;;;;;;;;;"1249";"2014-10-01 13:13:36.035";"ST_correctStop";"33";"1";"FINISHED";"NONE";"success";"0";"1";"2014-10-01 13:13:34.785";"3";;;;;;;;;;;;;;;;;;;;;;;;;;;;;;;;;
"Grg170dx";"1996";;"Windows 7";"Rachel's Experiment (D.T.)";"1.0";"2";"1";"1";"2";"1";"1";"2014-10-01 13:05:53.029";"2014-10-01 13:23:42.807";"1";"1";"1";"111";"110";"module.training_block3.exec-3651.GoNoGo3";;;;;;;;;;;;;;;;;;;;;;;;;;;;;;;;;;;;;;;;;;;;;;;"1250";"2014-10-01 13:13:38.595";"ST_correctStop";"31";"0";"FINISHED";"NONE";"success";"0";"1";"2014-10-01 13:13:37.345";"3";;;;;;;;;;;;;;;;;;;;;;;;;;;;;;;;;
"Grg170dx";"1996";;"Windows 7";"Rachel's Experiment (D.T.)";"1.0";"2";"1";"1";"2";"1";"1";"2014-10-01 13:05:53.029";"2014-10-01 13:23:42.807";"1";"1";"1";"112";"111";"module.training_block3.exec-3651.GoNoGo3";;;;;;;;;;;;;;;;;;;;;;;;;;;;;;;;;;;;;;;;;;;;;;;"1249";"2014-10-01 13:13:41.141";"ST_correctStop";"21";"0";"FINISHED";"NONE";"success";"0";"1";"2014-10-01 13:13:39.891";"3";;;;;;;;;;;;;;;;;;;;;;;;;;;;;;;;;
"Grg170dx";"1996";;"Windows 7";"Rachel's Experiment (D.T.)";"1.0";"2";"1";"1";"2";"1";"1";"2014-10-01 13:05:53.029";"2014-10-01 13:23:42.807";"1";"1";"1";"113";"112";"module.training_block3.exec-3651.GoNoGo3";;;;;;;;;;;;;;;;;;;;;;;;;;;;;;;;;;;;;;;;;;;;;;;"1249";"2014-10-01 13:13:43.686";"NST_correctLoc";"13";"1";"FINISHED";"RIGHT";"success";"414";"0";"2014-10-01 13:13:42.436";"2";;;;;;;;;;;;;;;;;;;;;;;;;;;;;;;;;
"Grg170dx";"1996";;"Windows 7";"Rachel's Experiment (D.T.)";"1.0";"2";"1";"1";"2";"1";"1";"2014-10-01 13:05:53.029";"2014-10-01 13:23:42.807";"1";"1";"1";"114";"113";"module.training_block3.exec-3651.GoNoGo3";;;;;;;;;;;;;;;;;;;;;;;;;;;;;;;;;;;;;;;;;;;;;;;"1249";"2014-10-01 13:13:46.232";"NST_correctLoc";"27";"0";"FINISHED";"LEFT";"success";"580";"0";"2014-10-01 13:13:44.982";"3";;;;;;;;;;;;;;;;;;;;;;;;;;;;;;;;;
"Grg170dx";"1996";;"Windows 7";"Rachel's Experiment (D.T.)";"1.0";"2";"1";"1";"2";"1";"1";"2014-10-01 13:05:53.029";"2014-10-01 13:23:42.807";"1";"1";"1";"115";"114";"module.training_block3.exec-3651.GoNoGo3";;;;;;;;;;;;;;;;;;;;;;;;;;;;;;;;;;;;;;;;;;;;;;;"1249";"2014-10-01 13:13:48.787";"ST_correctStop";"24";"1";"FINISHED";"NONE";"success";"0";"1";"2014-10-01 13:13:47.537";"3";;;;;;;;;;;;;;;;;;;;;;;;;;;;;;;;;
"Grg170dx";"1996";;"Windows 7";"Rachel's Experiment (D.T.)";"1.0";"2";"1";"1";"2";"1";"1";"2014-10-01 13:05:53.029";"2014-10-01 13:23:42.807";"1";"1";"1";"116";"115";"module.training_block3.exec-3651.GoNoGo3";;;;;;;;;;;;;;;;;;;;;;;;;;;;;;;;;;;;;;;;;;;;;;;"1249";"2014-10-01 13:13:51.343";"NST_correctLoc";"10";"1";"FINISHED";"RIGHT";"success";"549";"0";"2014-10-01 13:13:50.093";"2";;;;;;;;;;;;;;;;;;;;;;;;;;;;;;;;;
"Grg170dx";"1996";;"Windows 7";"Rachel's Experiment (D.T.)";"1.0";"2";"1";"1";"2";"1";"1";"2014-10-01 13:05:53.029";"2014-10-01 13:23:42.807";"1";"1";"1";"117";"116";"module.training_block3.exec-3651.GoNoGo3";;;;;;;;;;;;;;;;;;;;;;;;;;;;;;;;;;;;;;;;;;;;;;;"1250";"2014-10-01 13:13:53.889";"ST_correctStop";"22";"1";"FINISHED";"NONE";"success";"0";"1";"2014-10-01 13:13:52.638";"3";;;;;;;;;;;;;;;;;;;;;;;;;;;;;;;;;
"Grg170dx";"1996";;"Windows 7";"Rachel's Experiment (D.T.)";"1.0";"2";"1";"1";"2";"1";"1";"2014-10-01 13:05:53.029";"2014-10-01 13:23:42.807";"1";"1";"1";"118";"117";"module.training_block3.exec-3651.GoNoGo3";;;;;;;;;;;;;;;;;;;;;;;;;;;;;;;;;;;;;;;;;;;;;;;"1249";"2014-10-01 13:13:56.435";"NST_correctLoc";"29";"1";"FINISHED";"RIGHT";"success";"733";"0";"2014-10-01 13:13:55.185";"3";;;;;;;;;;;;;;;;;;;;;;;;;;;;;;;;;
"Grg170dx";"1996";;"Windows 7";"Rachel's Experiment (D.T.)";"1.0";"2";"1";"1";"2";"1";"1";"2014-10-01 13:05:53.029";"2014-10-01 13:23:42.807";"1";"1";"1";"119";"118";"module.training_block3.exec-3651.GoNoGo3";;;;;;;;;;;;;;;;;;;;;;;;;;;;;;;;;;;;;;;;;;;;;;;"1250";"2014-10-01 13:13:58.994";"NST_correctLoc";"9";"1";"FINISHED";"RIGHT";"success";"679";"0";"2014-10-01 13:13:57.744";"2";;;;;;;;;;;;;;;;;;;;;;;;;;;;;;;;;
"Grg170dx";"1996";;"Windows 7";"Rachel's Experiment (D.T.)";"1.0";"2";"1";"1";"2";"1";"1";"2014-10-01 13:05:53.029";"2014-10-01 13:23:42.807";"1";"1";"1";"120";"119";"module.training_block3.exec-3651.GoNoGo3";;;;;;;;;;;;;;;;;;;;;;;;;;;;;;;;;;;;;;;;;;;;;;;"1249";"2014-10-01 13:14:01.541";"NST_correctLoc";"12";"1";"FINISHED";"RIGHT";"success";"686";"0";"2014-10-01 13:14:00.291";"2";;;;;;;;;;;;;;;;;;;;;;;;;;;;;;;;;
"Grg170dx";"1996";;"Windows 7";"Rachel's Experiment (D.T.)";"1.0";"2";"1";"1";"2";"1";"1";"2014-10-01 13:05:53.029";"2014-10-01 13:23:42.807";"1";"1";"1";"121";"120";"module.training_block3.exec-3651.GoNoGo3";;;;;;;;;;;;;;;;;;;;;;;;;;;;;;;;;;;;;;;;;;;;;;;"1249";"2014-10-01 13:14:04.098";"NST_correctLoc";"23";"0";"FINISHED";"LEFT";"success";"563";"0";"2014-10-01 13:14:02.848";"3";;;;;;;;;;;;;;;;;;;;;;;;;;;;;;;;;
"Grg170dx";"1996";;"Windows 7";"Rachel's Experiment (D.T.)";"1.0";"2";"1";"1";"2";"1";"1";"2014-10-01 13:05:53.029";"2014-10-01 13:23:42.807";"1";"1";"1";"122";"121";"module.training_block3.exec-3651.GoNoGo3";;;;;;;;;;;;;;;;;;;;;;;;;;;;;;;;;;;;;;;;;;;;;;;"1250";"2014-10-01 13:14:06.660";"NST_correctLoc";"25";"0";"FINISHED";"LEFT";"success";"575";"0";"2014-10-01 13:14:05.409";"3";;;;;;;;;;;;;;;;;;;;;;;;;;;;;;;;;
"Grg170dx";"1996";;"Windows 7";"Rachel's Experiment (D.T.)";"1.0";"2";"1";"1";"2";"1";"1";"2014-10-01 13:05:53.029";"2014-10-01 13:23:42.807";"1";"1";"1";"123";"122";"module.training_block3.exec-3651.GoNoGo3";;;;;;;;;;;;;;;;;;;;;;;;;;;;;;;;;;;;;;;;;;;;;;;"1249";"2014-10-01 13:14:09.214";"NST_correctLoc";"16";"1";"FINISHED";"RIGHT";"success";"433";"0";"2014-10-01 13:14:07.964";"2";;;;;;;;;;;;;;;;;;;;;;;;;;;;;;;;;
"Grg170dx";"1996";;"Windows 7";"Rachel's Experiment (D.T.)";"1.0";"2";"1";"1";"2";"1";"1";"2014-10-01 13:05:53.029";"2014-10-01 13:23:42.807";"1";"1";"1";"124";"123";"module.training_block4.exec-9053.GoNoGo4";;;;;;;;;;;;;;;;;;;;;;;;;;;;;;;;;;;;;;;;;;;;;;;;;;;;;;;;;;;"1250";"2014-10-01 13:16:48.299";"ST_failedStop";"34";"1";"FINISHED";"RIGHT";"failure";"444";"1";"2014-10-01 13:16:47.049";"3";;;;;;;;;;;;;;;;;;;;;
"Grg170dx";"1996";;"Windows 7";"Rachel's Experiment (D.T.)";"1.0";"2";"1";"1";"2";"1";"1";"2014-10-01 13:05:53.029";"2014-10-01 13:23:42.807";"1";"1";"1";"125";"124";"module.training_block4.exec-9053.GoNoGo4";;;;;;;;;;;;;;;;;;;;;;;;;;;;;;;;;;;;;;;;;;;;;;;;;;;;;;;;;;;"1250";"2014-10-01 13:16:50.846";"ST_failedStop";"1";"0";"FINISHED";"LEFT";"failure";"478";"1";"2014-10-01 13:16:49.596";"1";;;;;;;;;;;;;;;;;;;;;
"Grg170dx";"1996";;"Windows 7";"Rachel's Experiment (D.T.)";"1.0";"2";"1";"1";"2";"1";"1";"2014-10-01 13:05:53.029";"2014-10-01 13:23:42.807";"1";"1";"1";"126";"125";"module.training_block4.exec-9053.GoNoGo4";;;;;;;;;;;;;;;;;;;;;;;;;;;;;;;;;;;;;;;;;;;;;;;;;;;;;;;;;;;"1250";"2014-10-01 13:16:53.392";"NST_correctLoc";"14";"0";"FINISHED";"LEFT";"success";"441";"0";"2014-10-01 13:16:52.142";"2";;;;;;;;;;;;;;;;;;;;;
"Grg170dx";"1996";;"Windows 7";"Rachel's Experiment (D.T.)";"1.0";"2";"1";"1";"2";"1";"1";"2014-10-01 13:05:53.029";"2014-10-01 13:23:42.807";"1";"1";"1";"127";"126";"module.training_block4.exec-9053.GoNoGo4";;;;;;;;;;;;;;;;;;;;;;;;;;;;;;;;;;;;;;;;;;;;;;;;;;;;;;;;;;;"1249";"2014-10-01 13:16:55.937";"ST_correctStop";"0";"1";"FINISHED";"NONE";"success";"0";"1";"2014-10-01 13:16:54.687";"1";;;;;;;;;;;;;;;;;;;;;
"Grg170dx";"1996";;"Windows 7";"Rachel's Experiment (D.T.)";"1.0";"2";"1";"1";"2";"1";"1";"2014-10-01 13:05:53.029";"2014-10-01 13:23:42.807";"1";"1";"1";"128";"127";"module.training_block4.exec-9053.GoNoGo4";;;;;;;;;;;;;;;;;;;;;;;;;;;;;;;;;;;;;;;;;;;;;;;;;;;;;;;;;;;"1249";"2014-10-01 13:16:58.482";"ST_correctStop";"2";"0";"FINISHED";"NONE";"success";"0";"1";"2014-10-01 13:16:57.232";"1";;;;;;;;;;;;;;;;;;;;;
"Grg170dx";"1996";;"Windows 7";"Rachel's Experiment (D.T.)";"1.0";"2";"1";"1";"2";"1";"1";"2014-10-01 13:05:53.029";"2014-10-01 13:23:42.807";"1";"1";"1";"129";"128";"module.training_block4.exec-9053.GoNoGo4";;;;;;;;;;;;;;;;;;;;;;;;;;;;;;;;;;;;;;;;;;;;;;;;;;;;;;;;;;;"1249";"2014-10-01 13:17:01.027";"ST_correctStop";"5";"0";"FINISHED";"NONE";"success";"0";"1";"2014-10-01 13:16:59.777";"1";;;;;;;;;;;;;;;;;;;;;
"Grg170dx";"1996";;"Windows 7";"Rachel's Experiment (D.T.)";"1.0";"2";"1";"1";"2";"1";"1";"2014-10-01 13:05:53.029";"2014-10-01 13:23:42.807";"1";"1";"1";"130";"129";"module.training_block4.exec-9053.GoNoGo4";;;;;;;;;;;;;;;;;;;;;;;;;;;;;;;;;;;;;;;;;;;;;;;;;;;;;;;;;;;"1249";"2014-10-01 13:17:03.576";"ST_correctStop";"7";"1";"FINISHED";"NONE";"success";"0";"1";"2014-10-01 13:17:02.326";"1";;;;;;;;;;;;;;;;;;;;;
"Grg170dx";"1996";;"Windows 7";"Rachel's Experiment (D.T.)";"1.0";"2";"1";"1";"2";"1";"1";"2014-10-01 13:05:53.029";"2014-10-01 13:23:42.807";"1";"1";"1";"131";"130";"module.training_block4.exec-9053.GoNoGo4";;;;;;;;;;;;;;;;;;;;;;;;;;;;;;;;;;;;;;;;;;;;;;;;;;;;;;;;;;;"1249";"2014-10-01 13:17:06.121";"NST_correctLoc";"20";"0";"FINISHED";"LEFT";"success";"390";"0";"2014-10-01 13:17:04.871";"3";;;;;;;;;;;;;;;;;;;;;
"Grg170dx";"1996";;"Windows 7";"Rachel's Experiment (D.T.)";"1.0";"2";"1";"1";"2";"1";"1";"2014-10-01 13:05:53.029";"2014-10-01 13:23:42.807";"1";"1";"1";"132";"131";"module.training_block4.exec-9053.GoNoGo4";;;;;;;;;;;;;;;;;;;;;;;;;;;;;;;;;;;;;;;;;;;;;;;;;;;;;;;;;;;"1250";"2014-10-01 13:17:08.668";"NST_correctLoc";"13";"0";"FINISHED";"LEFT";"success";"563";"0";"2014-10-01 13:17:07.418";"2";;;;;;;;;;;;;;;;;;;;;
"Grg170dx";"1996";;"Windows 7";"Rachel's Experiment (D.T.)";"1.0";"2";"1";"1";"2";"1";"1";"2014-10-01 13:05:53.029";"2014-10-01 13:23:42.807";"1";"1";"1";"133";"132";"module.training_block4.exec-9053.GoNoGo4";;;;;;;;;;;;;;;;;;;;;;;;;;;;;;;;;;;;;;;;;;;;;;;;;;;;;;;;;;;"1249";"2014-10-01 13:17:11.214";"NST_correctLoc";"18";"1";"FINISHED";"RIGHT";"success";"599";"0";"2014-10-01 13:17:09.964";"3";;;;;;;;;;;;;;;;;;;;;
"Grg170dx";"1996";;"Windows 7";"Rachel's Experiment (D.T.)";"1.0";"2";"1";"1";"2";"1";"1";"2014-10-01 13:05:53.029";"2014-10-01 13:23:42.807";"1";"1";"1";"134";"133";"module.training_block4.exec-9053.GoNoGo4";;;;;;;;;;;;;;;;;;;;;;;;;;;;;;;;;;;;;;;;;;;;;;;;;;;;;;;;;;;"1249";"2014-10-01 13:17:13.761";"NST_correctLoc";"33";"1";"FINISHED";"RIGHT";"success";"556";"0";"2014-10-01 13:17:12.511";"3";;;;;;;;;;;;;;;;;;;;;
"Grg170dx";"1996";;"Windows 7";"Rachel's Experiment (D.T.)";"1.0";"2";"1";"1";"2";"1";"1";"2014-10-01 13:05:53.029";"2014-10-01 13:23:42.807";"1";"1";"1";"135";"134";"module.training_block4.exec-9053.GoNoGo4";;;;;;;;;;;;;;;;;;;;;;;;;;;;;;;;;;;;;;;;;;;;;;;;;;;;;;;;;;;"1249";"2014-10-01 13:17:16.307";"NST_correctLoc";"9";"0";"FINISHED";"LEFT";"success";"691";"0";"2014-10-01 13:17:15.057";"2";;;;;;;;;;;;;;;;;;;;;
"Grg170dx";"1996";;"Windows 7";"Rachel's Experiment (D.T.)";"1.0";"2";"1";"1";"2";"1";"1";"2014-10-01 13:05:53.029";"2014-10-01 13:23:42.807";"1";"1";"1";"136";"135";"module.training_block4.exec-9053.GoNoGo4";;;;;;;;;;;;;;;;;;;;;;;;;;;;;;;;;;;;;;;;;;;;;;;;;;;;;;;;;;;"1249";"2014-10-01 13:17:18.853";"NST_correctLoc";"22";"1";"FINISHED";"RIGHT";"success";"482";"0";"2014-10-01 13:17:17.603";"3";;;;;;;;;;;;;;;;;;;;;
"Grg170dx";"1996";;"Windows 7";"Rachel's Experiment (D.T.)";"1.0";"2";"1";"1";"2";"1";"1";"2014-10-01 13:05:53.029";"2014-10-01 13:23:42.807";"1";"1";"1";"137";"136";"module.training_block4.exec-9053.GoNoGo4";;;;;;;;;;;;;;;;;;;;;;;;;;;;;;;;;;;;;;;;;;;;;;;;;;;;;;;;;;;"1249";"2014-10-01 13:17:21.399";"NST_correctLoc";"28";"1";"FINISHED";"RIGHT";"success";"579";"0";"2014-10-01 13:17:20.149";"3";;;;;;;;;;;;;;;;;;;;;
"Grg170dx";"1996";;"Windows 7";"Rachel's Experiment (D.T.)";"1.0";"2";"1";"1";"2";"1";"1";"2014-10-01 13:05:53.029";"2014-10-01 13:23:42.807";"1";"1";"1";"138";"137";"module.training_block4.exec-9053.GoNoGo4";;;;;;;;;;;;;;;;;;;;;;;;;;;;;;;;;;;;;;;;;;;;;;;;;;;;;;;;;;;"1249";"2014-10-01 13:17:23.943";"NST_correctLoc";"21";"0";"FINISHED";"LEFT";"success";"613";"0";"2014-10-01 13:17:22.693";"3";;;;;;;;;;;;;;;;;;;;;
"Grg170dx";"1996";;"Windows 7";"Rachel's Experiment (D.T.)";"1.0";"2";"1";"1";"2";"1";"1";"2014-10-01 13:05:53.029";"2014-10-01 13:23:42.807";"1";"1";"1";"139";"138";"module.training_block4.exec-9053.GoNoGo4";;;;;;;;;;;;;;;;;;;;;;;;;;;;;;;;;;;;;;;;;;;;;;;;;;;;;;;;;;;"1249";"2014-10-01 13:17:26.487";"NST_correctLoc";"11";"0";"FINISHED";"LEFT";"success";"463";"0";"2014-10-01 13:17:25.237";"2";;;;;;;;;;;;;;;;;;;;;
"Grg170dx";"1996";;"Windows 7";"Rachel's Experiment (D.T.)";"1.0";"2";"1";"1";"2";"1";"1";"2014-10-01 13:05:53.029";"2014-10-01 13:23:42.807";"1";"1";"1";"140";"139";"module.training_block4.exec-9053.GoNoGo4";;;;;;;;;;;;;;;;;;;;;;;;;;;;;;;;;;;;;;;;;;;;;;;;;;;;;;;;;;;"1249";"2014-10-01 13:17:29.033";"ST_correctStop";"26";"0";"FINISHED";"NONE";"success";"0";"1";"2014-10-01 13:17:27.783";"3";;;;;;;;;;;;;;;;;;;;;
"Grg170dx";"1996";;"Windows 7";"Rachel's Experiment (D.T.)";"1.0";"2";"1";"1";"2";"1";"1";"2014-10-01 13:05:53.029";"2014-10-01 13:23:42.807";"1";"1";"1";"141";"140";"module.training_block4.exec-9053.GoNoGo4";;;;;;;;;;;;;;;;;;;;;;;;;;;;;;;;;;;;;;;;;;;;;;;;;;;;;;;;;;;"1249";"2014-10-01 13:17:31.581";"ST_correctStop";"24";"0";"FINISHED";"NONE";"success";"0";"1";"2014-10-01 13:17:30.331";"3";;;;;;;;;;;;;;;;;;;;;
"Grg170dx";"1996";;"Windows 7";"Rachel's Experiment (D.T.)";"1.0";"2";"1";"1";"2";"1";"1";"2014-10-01 13:05:53.029";"2014-10-01 13:23:42.807";"1";"1";"1";"142";"141";"module.training_block4.exec-9053.GoNoGo4";;;;;;;;;;;;;;;;;;;;;;;;;;;;;;;;;;;;;;;;;;;;;;;;;;;;;;;;;;;"1249";"2014-10-01 13:17:34.134";"ST_correctStop";"6";"1";"FINISHED";"NONE";"success";"0";"1";"2014-10-01 13:17:32.884";"1";;;;;;;;;;;;;;;;;;;;;
"Grg170dx";"1996";;"Windows 7";"Rachel's Experiment (D.T.)";"1.0";"2";"1";"1";"2";"1";"1";"2014-10-01 13:05:53.029";"2014-10-01 13:23:42.807";"1";"1";"1";"143";"142";"module.training_block4.exec-9053.GoNoGo4";;;;;;;;;;;;;;;;;;;;;;;;;;;;;;;;;;;;;;;;;;;;;;;;;;;;;;;;;;;"1250";"2014-10-01 13:17:36.681";"ST_correctStop";"31";"1";"FINISHED";"NONE";"success";"0";"1";"2014-10-01 13:17:35.430";"3";;;;;;;;;;;;;;;;;;;;;
"Grg170dx";"1996";;"Windows 7";"Rachel's Experiment (D.T.)";"1.0";"2";"1";"1";"2";"1";"1";"2014-10-01 13:05:53.029";"2014-10-01 13:23:42.807";"1";"1";"1";"144";"143";"module.training_block4.exec-9053.GoNoGo4";;;;;;;;;;;;;;;;;;;;;;;;;;;;;;;;;;;;;;;;;;;;;;;;;;;;;;;;;;;"1249";"2014-10-01 13:17:39.227";"ST_correctStop";"23";"0";"FINISHED";"NONE";"success";"0";"1";"2014-10-01 13:17:37.977";"3";;;;;;;;;;;;;;;;;;;;;
"Grg170dx";"1996";;"Windows 7";"Rachel's Experiment (D.T.)";"1.0";"2";"1";"1";"2";"1";"1";"2014-10-01 13:05:53.029";"2014-10-01 13:23:42.807";"1";"1";"1";"145";"144";"module.training_block4.exec-9053.GoNoGo4";;;;;;;;;;;;;;;;;;;;;;;;;;;;;;;;;;;;;;;;;;;;;;;;;;;;;;;;;;;"1249";"2014-10-01 13:17:41.769";"NST_correctLoc";"15";"1";"FINISHED";"RIGHT";"success";"429";"0";"2014-10-01 13:17:40.519";"2";;;;;;;;;;;;;;;;;;;;;
"Grg170dx";"1996";;"Windows 7";"Rachel's Experiment (D.T.)";"1.0";"2";"1";"1";"2";"1";"1";"2014-10-01 13:05:53.029";"2014-10-01 13:23:42.807";"1";"1";"1";"146";"145";"module.training_block4.exec-9053.GoNoGo4";;;;;;;;;;;;;;;;;;;;;;;;;;;;;;;;;;;;;;;;;;;;;;;;;;;;;;;;;;;"1249";"2014-10-01 13:17:44.313";"ST_correctStop";"30";"0";"FINISHED";"NONE";"success";"0";"1";"2014-10-01 13:17:43.063";"3";;;;;;;;;;;;;;;;;;;;;
"Grg170dx";"1996";;"Windows 7";"Rachel's Experiment (D.T.)";"1.0";"2";"1";"1";"2";"1";"1";"2014-10-01 13:05:53.029";"2014-10-01 13:23:42.807";"1";"1";"1";"147";"146";"module.training_block4.exec-9053.GoNoGo4";;;;;;;;;;;;;;;;;;;;;;;;;;;;;;;;;;;;;;;;;;;;;;;;;;;;;;;;;;;"1250";"2014-10-01 13:17:46.858";"NST_correctLoc";"12";"1";"FINISHED";"RIGHT";"success";"420";"0";"2014-10-01 13:17:45.607";"2";;;;;;;;;;;;;;;;;;;;;
"Grg170dx";"1996";;"Windows 7";"Rachel's Experiment (D.T.)";"1.0";"2";"1";"1";"2";"1";"1";"2014-10-01 13:05:53.029";"2014-10-01 13:23:42.807";"1";"1";"1";"148";"147";"module.training_block4.exec-9053.GoNoGo4";;;;;;;;;;;;;;;;;;;;;;;;;;;;;;;;;;;;;;;;;;;;;;;;;;;;;;;;;;;"1250";"2014-10-01 13:17:49.405";"ST_correctStop";"3";"1";"FINISHED";"NONE";"success";"0";"1";"2014-10-01 13:17:48.155";"1";;;;;;;;;;;;;;;;;;;;;
"Grg170dx";"1996";;"Windows 7";"Rachel's Experiment (D.T.)";"1.0";"2";"1";"1";"2";"1";"1";"2014-10-01 13:05:53.029";"2014-10-01 13:23:42.807";"1";"1";"1";"149";"148";"module.training_block4.exec-9053.GoNoGo4";;;;;;;;;;;;;;;;;;;;;;;;;;;;;;;;;;;;;;;;;;;;;;;;;;;;;;;;;;;"1249";"2014-10-01 13:17:51.947";"NST_correctLoc";"16";"1";"FINISHED";"RIGHT";"success";"426";"0";"2014-10-01 13:17:50.697";"2";;;;;;;;;;;;;;;;;;;;;
"Grg170dx";"1996";;"Windows 7";"Rachel's Experiment (D.T.)";"1.0";"2";"1";"1";"2";"1";"1";"2014-10-01 13:05:53.029";"2014-10-01 13:23:42.807";"1";"1";"1";"150";"149";"module.training_block4.exec-9053.GoNoGo4";;;;;;;;;;;;;;;;;;;;;;;;;;;;;;;;;;;;;;;;;;;;;;;;;;;;;;;;;;;"1249";"2014-10-01 13:17:54.492";"NST_correctLoc";"35";"0";"FINISHED";"LEFT";"success";"578";"0";"2014-10-01 13:17:53.242";"3";;;;;;;;;;;;;;;;;;;;;
"Grg170dx";"1996";;"Windows 7";"Rachel's Experiment (D.T.)";"1.0";"2";"1";"1";"2";"1";"1";"2014-10-01 13:05:53.029";"2014-10-01 13:23:42.807";"1";"1";"1";"151";"150";"module.training_block4.exec-9053.GoNoGo4";;;;;;;;;;;;;;;;;;;;;;;;;;;;;;;;;;;;;;;;;;;;;;;;;;;;;;;;;;;"1249";"2014-10-01 13:17:57.036";"NST_correctLoc";"17";"0";"FINISHED";"LEFT";"success";"533";"0";"2014-10-01 13:17:55.786";"2";;;;;;;;;;;;;;;;;;;;;
"Grg170dx";"1996";;"Windows 7";"Rachel's Experiment (D.T.)";"1.0";"2";"1";"1";"2";"1";"1";"2014-10-01 13:05:53.029";"2014-10-01 13:23:42.807";"1";"1";"1";"152";"151";"module.training_block4.exec-9053.GoNoGo4";;;;;;;;;;;;;;;;;;;;;;;;;;;;;;;;;;;;;;;;;;;;;;;;;;;;;;;;;;;"1249";"2014-10-01 13:17:59.579";"ST_correctStop";"4";"0";"FINISHED";"NONE";"success";"0";"1";"2014-10-01 13:17:58.329";"1";;;;;;;;;;;;;;;;;;;;;
"Grg170dx";"1996";;"Windows 7";"Rachel's Experiment (D.T.)";"1.0";"2";"1";"1";"2";"1";"1";"2014-10-01 13:05:53.029";"2014-10-01 13:23:42.807";"1";"1";"1";"153";"152";"module.training_block4.exec-9053.GoNoGo4";;;;;;;;;;;;;;;;;;;;;;;;;;;;;;;;;;;;;;;;;;;;;;;;;;;;;;;;;;;"1250";"2014-10-01 13:18:02.125";"ST_correctStop";"32";"0";"FINISHED";"NONE";"success";"0";"1";"2014-10-01 13:18:00.875";"3";;;;;;;;;;;;;;;;;;;;;
"Grg170dx";"1996";;"Windows 7";"Rachel's Experiment (D.T.)";"1.0";"2";"1";"1";"2";"1";"1";"2014-10-01 13:05:53.029";"2014-10-01 13:23:42.807";"1";"1";"1";"154";"153";"module.training_block4.exec-9053.GoNoGo4";;;;;;;;;;;;;;;;;;;;;;;;;;;;;;;;;;;;;;;;;;;;;;;;;;;;;;;;;;;"1250";"2014-10-01 13:18:04.671";"ST_correctStop";"25";"1";"FINISHED";"NONE";"success";"0";"1";"2014-10-01 13:18:03.420";"3";;;;;;;;;;;;;;;;;;;;;
"Grg170dx";"1996";;"Windows 7";"Rachel's Experiment (D.T.)";"1.0";"2";"1";"1";"2";"1";"1";"2014-10-01 13:05:53.029";"2014-10-01 13:23:42.807";"1";"1";"1";"155";"154";"module.training_block4.exec-9053.GoNoGo4";;;;;;;;;;;;;;;;;;;;;;;;;;;;;;;;;;;;;;;;;;;;;;;;;;;;;;;;;;;"1249";"2014-10-01 13:18:07.215";"ST_correctStop";"29";"1";"FINISHED";"NONE";"success";"0";"1";"2014-10-01 13:18:05.965";"3";;;;;;;;;;;;;;;;;;;;;
"Grg170dx";"1996";;"Windows 7";"Rachel's Experiment (D.T.)";"1.0";"2";"1";"1";"2";"1";"1";"2014-10-01 13:05:53.029";"2014-10-01 13:23:42.807";"1";"1";"1";"156";"155";"module.training_block4.exec-9053.GoNoGo4";;;;;;;;;;;;;;;;;;;;;;;;;;;;;;;;;;;;;;;;;;;;;;;;;;;;;;;;;;;"1249";"2014-10-01 13:18:09.757";"ST_correctStop";"8";"0";"FINISHED";"NONE";"success";"0";"1";"2014-10-01 13:18:08.507";"1";;;;;;;;;;;;;;;;;;;;;
"Grg170dx";"1996";;"Windows 7";"Rachel's Experiment (D.T.)";"1.0";"2";"1";"1";"2";"1";"1";"2014-10-01 13:05:53.029";"2014-10-01 13:23:42.807";"1";"1";"1";"157";"156";"module.training_block4.exec-9053.GoNoGo4";;;;;;;;;;;;;;;;;;;;;;;;;;;;;;;;;;;;;;;;;;;;;;;;;;;;;;;;;;;"1249";"2014-10-01 13:18:12.300";"NST_correctLoc";"27";"1";"FINISHED";"RIGHT";"success";"443";"0";"2014-10-01 13:18:11.050";"3";;;;;;;;;;;;;;;;;;;;;
"Grg170dx";"1996";;"Windows 7";"Rachel's Experiment (D.T.)";"1.0";"2";"1";"1";"2";"1";"1";"2014-10-01 13:05:53.029";"2014-10-01 13:23:42.807";"1";"1";"1";"158";"157";"module.training_block4.exec-9053.GoNoGo4";;;;;;;;;;;;;;;;;;;;;;;;;;;;;;;;;;;;;;;;;;;;;;;;;;;;;;;;;;;"1250";"2014-10-01 13:18:14.844";"NST_correctLoc";"19";"1";"FINISHED";"RIGHT";"success";"608";"0";"2014-10-01 13:18:13.594";"3";;;;;;;;;;;;;;;;;;;;;
"Grg170dx";"1996";;"Windows 7";"Rachel's Experiment (D.T.)";"1.0";"2";"1";"1";"2";"1";"1";"2014-10-01 13:05:53.029";"2014-10-01 13:23:42.807";"1";"1";"1";"159";"158";"module.training_block4.exec-9053.GoNoGo4";;;;;;;;;;;;;;;;;;;;;;;;;;;;;;;;;;;;;;;;;;;;;;;;;;;;;;;;;;;"1249";"2014-10-01 13:18:17.387";"NST_correctLoc";"10";"0";"FINISHED";"LEFT";"success";"532";"0";"2014-10-01 13:18:16.137";"2";;;;;;;;;;;;;;;;;;;;;
"Grg170dx";"1996";;"Windows 7";"Rachel's Experiment (D.T.)";"1.0";"2";"1";"1";"2";"1";"1";"2014-10-01 13:05:53.029";"2014-10-01 13:23:42.807";"1";"1";"1";"160";"159";"module.devaluation_practice.exec-1752.devalPractice";;;;;;;;;;;;"16382";"2014-10-01 13:19:12.259";"0";"8";"7";"6";"6887";"3195";"3222";"2014-10-01 13:18:55.876";;;;;;;;;;;;;;;;;;;;;;;;;;;;;;;;;;;;;;;;;;;;;;;;;;;;;;;;;;;;;;;;;;;;;;
"Grg170dx";"1996";;"Windows 7";"Rachel's Experiment (D.T.)";"1.0";"2";"1";"1";"2";"1";"1";"2014-10-01 13:05:53.029";"2014-10-01 13:23:42.807";"1";"1";"1";"161";"160";"module.devaluation_practice.exec-1752.devalPractice";;;;;;;;;;;;"11917";"2014-10-01 13:19:24.227";"1";"3";"2";"3";"2153";"2632";"4115";"2014-10-01 13:19:12.310";;;;;;;;;;;;;;;;;;;;;;;;;;;;;;;;;;;;;;;;;;;;;;;;;;;;;;;;;;;;;;;;;;;;;;
"Grg170dx";"1996";;"Windows 7";"Rachel's Experiment (D.T.)";"1.0";"2";"1";"1";"2";"1";"1";"2014-10-01 13:05:53.029";"2014-10-01 13:23:42.807";"1";"1";"1";"162";"161";"module.devaluation_practice.exec-1752.devalPractice";;;;;;;;;;;;"14247";"2014-10-01 13:19:38.526";"2";"6";"6";"8";"4509";"1331";"5389";"2014-10-01 13:19:24.280";;;;;;;;;;;;;;;;;;;;;;;;;;;;;;;;;;;;;;;;;;;;;;;;;;;;;;;;;;;;;;;;;;;;;;
"Grg170dx";"1996";;"Windows 7";"Rachel's Experiment (D.T.)";"1.0";"2";"1";"1";"2";"1";"1";"2014-10-01 13:05:53.029";"2014-10-01 13:23:42.807";"1";"1";"1";"163";"162";"module.devaluation_practice.exec-1752.devalPractice";;;;;;;;;;;;"9996";"2014-10-01 13:19:48.573";"3";"3";"5";"7";"1787";"1736";"3457";"2014-10-01 13:19:38.577";;;;;;;;;;;;;;;;;;;;;;;;;;;;;;;;;;;;;;;;;;;;;;;;;;;;;;;;;;;;;;;;;;;;;;
"Grg170dx";"1996";;"Windows 7";"Rachel's Experiment (D.T.)";"1.0";"2";"1";"1";"2";"1";"1";"2014-10-01 13:05:53.029";"2014-10-01 13:23:42.807";"1";"1";"1";"164";"163";"module.devaluation_block1.exec-7138.deval1";"13198";"2014-10-01 13:20:12.728";"21";"8";"7";"8";"4193";"3401";"2578";"2014-10-01 13:19:59.530";"3";;;;;;;;;;;;;;;;;;;;;;;;;;;;;;;;;;;;;;;;;;;;;;;;;;;;;;;;;;;;;;;;;;;;;;;;;;;;;;;;
"Grg170dx";"1996";;"Windows 7";"Rachel's Experiment (D.T.)";"1.0";"2";"1";"1";"2";"1";"1";"2014-10-01 13:05:53.029";"2014-10-01 13:23:42.807";"1";"1";"1";"165";"164";"module.devaluation_block1.exec-7138.deval1";"12437";"2014-10-01 13:20:25.216";"11";"8";"6";"3";"3505";"2769";"3141";"2014-10-01 13:20:12.778";"2";;;;;;;;;;;;;;;;;;;;;;;;;;;;;;;;;;;;;;;;;;;;;;;;;;;;;;;;;;;;;;;;;;;;;;;;;;;;;;;;
"Grg170dx";"1996";;"Windows 7";"Rachel's Experiment (D.T.)";"1.0";"2";"1";"1";"2";"1";"1";"2014-10-01 13:05:53.029";"2014-10-01 13:23:42.807";"1";"1";"1";"166";"165";"module.devaluation_block1.exec-7138.deval1";"9796";"2014-10-01 13:20:35.063";"4";"8";"1";"2";"2778";"2126";"1871";"2014-10-01 13:20:25.268";"1";;;;;;;;;;;;;;;;;;;;;;;;;;;;;;;;;;;;;;;;;;;;;;;;;;;;;;;;;;;;;;;;;;;;;;;;;;;;;;;;
"Grg170dx";"1996";;"Windows 7";"Rachel's Experiment (D.T.)";"1.0";"2";"1";"1";"2";"1";"1";"2014-10-01 13:05:53.029";"2014-10-01 13:23:42.807";"1";"1";"1";"167";"166";"module.devaluation_block1.exec-7138.deval1";"9061";"2014-10-01 13:20:44.173";"1";"5";"4";"4";"1969";"1520";"2552";"2014-10-01 13:20:35.111";"1";;;;;;;;;;;;;;;;;;;;;;;;;;;;;;;;;;;;;;;;;;;;;;;;;;;;;;;;;;;;;;;;;;;;;;;;;;;;;;;;
"Grg170dx";"1996";;"Windows 7";"Rachel's Experiment (D.T.)";"1.0";"2";"1";"1";"2";"1";"1";"2014-10-01 13:05:53.029";"2014-10-01 13:23:42.807";"1";"1";"1";"168";"167";"module.devaluation_block1.exec-7138.deval1";"7728";"2014-10-01 13:20:51.953";"15";"7";"2";"2";"1759";"1275";"1675";"2014-10-01 13:20:44.225";"2";;;;;;;;;;;;;;;;;;;;;;;;;;;;;;;;;;;;;;;;;;;;;;;;;;;;;;;;;;;;;;;;;;;;;;;;;;;;;;;;
"Grg170dx";"1996";;"Windows 7";"Rachel's Experiment (D.T.)";"1.0";"2";"1";"1";"2";"1";"1";"2014-10-01 13:05:53.029";"2014-10-01 13:23:42.807";"1";"1";"1";"169";"168";"module.devaluation_block1.exec-7138.deval1";"8509";"2014-10-01 13:21:00.516";"20";"6";"5";"7";"1930";"2044";"1514";"2014-10-01 13:20:52.006";"3";;;;;;;;;;;;;;;;;;;;;;;;;;;;;;;;;;;;;;;;;;;;;;;;;;;;;;;;;;;;;;;;;;;;;;;;;;;;;;;;
"Grg170dx";"1996";;"Windows 7";"Rachel's Experiment (D.T.)";"1.0";"2";"1";"1";"2";"1";"1";"2014-10-01 13:05:53.029";"2014-10-01 13:23:42.807";"1";"1";"1";"170";"169";"module.devaluation_block1.exec-7138.deval1";"11530";"2014-10-01 13:21:12.111";"16";"3";"2";"3";"4208";"3391";"912";"2014-10-01 13:21:00.581";"2";;;;;;;;;;;;;;;;;;;;;;;;;;;;;;;;;;;;;;;;;;;;;;;;;;;;;;;;;;;;;;;;;;;;;;;;;;;;;;;;
"Grg170dx";"1996";;"Windows 7";"Rachel's Experiment (D.T.)";"1.0";"2";"1";"1";"2";"1";"1";"2014-10-01 13:05:53.029";"2014-10-01 13:23:42.807";"1";"1";"1";"171";"170";"module.devaluation_block1.exec-7138.deval1";"7911";"2014-10-01 13:21:20.078";"0";"6";"4";"5";"2328";"1454";"1107";"2014-10-01 13:21:12.167";"1";;;;;;;;;;;;;;;;;;;;;;;;;;;;;;;;;;;;;;;;;;;;;;;;;;;;;;;;;;;;;;;;;;;;;;;;;;;;;;;;
"Grg170dx";"1996";;"Windows 7";"Rachel's Experiment (D.T.)";"1.0";"2";"1";"1";"2";"1";"1";"2014-10-01 13:05:53.029";"2014-10-01 13:23:42.807";"1";"1";"1";"172";"171";"module.devaluation_block1.exec-7138.deval1";"8633";"2014-10-01 13:21:28.765";"23";"8";"7";"7";"2561";"1144";"1908";"2014-10-01 13:21:20.132";"3";;;;;;;;;;;;;;;;;;;;;;;;;;;;;;;;;;;;;;;;;;;;;;;;;;;;;;;;;;;;;;;;;;;;;;;;;;;;;;;;
"Grg170dx";"1996";;"Windows 7";"Rachel's Experiment (D.T.)";"1.0";"2";"1";"1";"2";"1";"1";"2014-10-01 13:05:53.029";"2014-10-01 13:23:42.807";"1";"1";"1";"173";"172";"module.devaluation_block1.exec-7138.deval1";"8237";"2014-10-01 13:21:37.054";"13";"6";"8";"8";"1370";"1521";"2328";"2014-10-01 13:21:28.816";"2";;;;;;;;;;;;;;;;;;;;;;;;;;;;;;;;;;;;;;;;;;;;;;;;;;;;;;;;;;;;;;;;;;;;;;;;;;;;;;;;
"Grg170dx";"1996";;"Windows 7";"Rachel's Experiment (D.T.)";"1.0";"2";"1";"1";"2";"1";"1";"2014-10-01 13:05:53.029";"2014-10-01 13:23:42.807";"1";"1";"1";"174";"173";"module.devaluation_block1.exec-7138.deval1";"9056";"2014-10-01 13:21:46.161";"26";"8";"9";"8";"3444";"1292";"1302";"2014-10-01 13:21:37.105";"3";;;;;;;;;;;;;;;;;;;;;;;;;;;;;;;;;;;;;;;;;;;;;;;;;;;;;;;;;;;;;;;;;;;;;;;;;;;;;;;;
"Grg170dx";"1996";;"Windows 7";"Rachel's Experiment (D.T.)";"1.0";"2";"1";"1";"2";"1";"1";"2014-10-01 13:05:53.029";"2014-10-01 13:23:42.807";"1";"1";"1";"175";"174";"module.devaluation_block1.exec-7138.deval1";"6883";"2014-10-01 13:21:53.095";"9";"4";"5";"5";"2143";"829";"892";"2014-10-01 13:21:46.211";"2";;;;;;;;;;;;;;;;;;;;;;;;;;;;;;;;;;;;;;;;;;;;;;;;;;;;;;;;;;;;;;;;;;;;;;;;;;;;;;;;
"Grg170dx";"1996";;"Windows 7";"Rachel's Experiment (D.T.)";"1.0";"2";"1";"1";"2";"1";"1";"2014-10-01 13:05:53.029";"2014-10-01 13:23:42.807";"1";"1";"1";"176";"175";"module.devaluation_block1.exec-7138.deval1";"10938";"2014-10-01 13:22:04.082";"5";"3";"4";"4";"3802";"1329";"2787";"2014-10-01 13:21:53.145";"1";;;;;;;;;;;;;;;;;;;;;;;;;;;;;;;;;;;;;;;;;;;;;;;;;;;;;;;;;;;;;;;;;;;;;;;;;;;;;;;;
"Grg170dx";"1996";;"Windows 7";"Rachel's Experiment (D.T.)";"1.0";"2";"1";"1";"2";"1";"1";"2014-10-01 13:05:53.029";"2014-10-01 13:23:42.807";"1";"1";"1";"177";"176";"module.devaluation_block1.exec-7138.deval1";"6000";"2014-10-01 13:22:10.136";"6";"6";"8";"7";"777";"1408";"798";"2014-10-01 13:22:04.134";"1";;;;;;;;;;;;;;;;;;;;;;;;;;;;;;;;;;;;;;;;;;;;;;;;;;;;;;;;;;;;;;;;;;;;;;;;;;;;;;;;
"Grg170dx";"1996";;"Windows 7";"Rachel's Experiment (D.T.)";"1.0";"2";"1";"1";"2";"1";"1";"2014-10-01 13:05:53.029";"2014-10-01 13:23:42.807";"1";"1";"1";"178";"177";"module.devaluation_block1.exec-7138.deval1";"6148";"2014-10-01 13:22:16.335";"8";"6";"8";"7";"866";"1504";"760";"2014-10-01 13:22:10.187";"1";;;;;;;;;;;;;;;;;;;;;;;;;;;;;;;;;;;;;;;;;;;;;;;;;;;;;;;;;;;;;;;;;;;;;;;;;;;;;;;;
"Grg170dx";"1996";;"Windows 7";"Rachel's Experiment (D.T.)";"1.0";"2";"1";"1";"2";"1";"1";"2014-10-01 13:05:53.029";"2014-10-01 13:23:42.807";"1";"1";"1";"179";"178";"module.devaluation_block1.exec-7138.deval1";"9610";"2014-10-01 13:22:25.999";"18";"5";"4";"5";"915";"2060";"3617";"2014-10-01 13:22:16.389";"3";;;;;;;;;;;;;;;;;;;;;;;;;;;;;;;;;;;;;;;;;;;;;;;;;;;;;;;;;;;;;;;;;;;;;;;;;;;;;;;;
"Grg170dx";"1996";;"Windows 7";"Rachel's Experiment (D.T.)";"1.0";"2";"1";"1";"2";"1";"1";"2014-10-01 13:05:53.029";"2014-10-01 13:23:42.807";"1";"1";"1";"180";"179";"module.devaluation_block1.exec-7138.deval1";"5548";"2014-10-01 13:22:31.648";"14";"6";"6";"6";"846";"516";"1169";"2014-10-01 13:22:26.099";"2";;;;;;;;;;;;;;;;;;;;;;;;;;;;;;;;;;;;;;;;;;;;;;;;;;;;;;;;;;;;;;;;;;;;;;;;;;;;;;;;
"Grg170dx";"1996";;"Windows 7";"Rachel's Experiment (D.T.)";"1.0";"2";"1";"1";"2";"1";"1";"2014-10-01 13:05:53.029";"2014-10-01 13:23:42.807";"1";"1";"1";"181";"180";"module.devaluation_block1.exec-7138.deval1";"8805";"2014-10-01 13:22:40.504";"25";"5";"5";"5";"5255";"270";"263";"2014-10-01 13:22:31.699";"3";;;;;;;;;;;;;;;;;;;;;;;;;;;;;;;;;;;;;;;;;;;;;;;;;;;;;;;;;;;;;;;;;;;;;;;;;;;;;;;;
"Grg170dx";"1996";;"Windows 7";"Rachel's Experiment (D.T.)";"1.0";"2";"1";"1";"2";"1";"1";"2014-10-01 13:05:53.029";"2014-10-01 13:23:42.807";"1";"1";"1";"182";"181";"module.devaluation_block1.exec-7138.deval1";"6728";"2014-10-01 13:22:47.285";"17";"2";"1";"2";"940";"1109";"1660";"2014-10-01 13:22:40.556";"2";;;;;;;;;;;;;;;;;;;;;;;;;;;;;;;;;;;;;;;;;;;;;;;;;;;;;;;;;;;;;;;;;;;;;;;;;;;;;;;;
"Grg170dx";"1996";;"Windows 7";"Rachel's Experiment (D.T.)";"1.0";"2";"1";"1";"2";"1";"1";"2014-10-01 13:05:53.029";"2014-10-01 13:23:42.807";"1";"1";"1";"183";"182";"module.devaluation_block1.exec-7138.deval1";"6892";"2014-10-01 13:22:54.227";"12";"5";"8";"8";"753";"1028";"2092";"2014-10-01 13:22:47.335";"2";;;;;;;;;;;;;;;;;;;;;;;;;;;;;;;;;;;;;;;;;;;;;;;;;;;;;;;;;;;;;;;;;;;;;;;;;;;;;;;;
"Grg170dx";"1996";;"Windows 7";"Rachel's Experiment (D.T.)";"1.0";"2";"1";"1";"2";"1";"1";"2014-10-01 13:05:53.029";"2014-10-01 13:23:42.807";"1";"1";"1";"184";"183";"module.devaluation_block1.exec-7138.deval1";"6968";"2014-10-01 13:23:01.245";"3";"4";"3";"4";"1490";"1226";"1235";"2014-10-01 13:22:54.276";"1";;;;;;;;;;;;;;;;;;;;;;;;;;;;;;;;;;;;;;;;;;;;;;;;;;;;;;;;;;;;;;;;;;;;;;;;;;;;;;;;
"Grg170dx";"1996";;"Windows 7";"Rachel's Experiment (D.T.)";"1.0";"2";"1";"1";"2";"1";"1";"2014-10-01 13:05:53.029";"2014-10-01 13:23:42.807";"1";"1";"1";"185";"184";"module.devaluation_block1.exec-7138.deval1";"8057";"2014-10-01 13:23:09.353";"10";"8";"8";"8";"1381";"2488";"1170";"2014-10-01 13:23:01.295";"2";;;;;;;;;;;;;;;;;;;;;;;;;;;;;;;;;;;;;;;;;;;;;;;;;;;;;;;;;;;;;;;;;;;;;;;;;;;;;;;;
"Grg170dx";"1996";;"Windows 7";"Rachel's Experiment (D.T.)";"1.0";"2";"1";"1";"2";"1";"1";"2014-10-01 13:05:53.029";"2014-10-01 13:23:42.807";"1";"1";"1";"186";"185";"module.devaluation_block1.exec-7138.deval1";"6308";"2014-10-01 13:23:15.719";"22";"5";"5";"5";"2327";"219";"743";"2014-10-01 13:23:09.411";"3";;;;;;;;;;;;;;;;;;;;;;;;;;;;;;;;;;;;;;;;;;;;;;;;;;;;;;;;;;;;;;;;;;;;;;;;;;;;;;;;
"Grg170dx";"1996";;"Windows 7";"Rachel's Experiment (D.T.)";"1.0";"2";"1";"1";"2";"1";"1";"2014-10-01 13:05:53.029";"2014-10-01 13:23:42.807";"1";"1";"1";"187";"186";"module.devaluation_block1.exec-7138.deval1";"6346";"2014-10-01 13:23:22.117";"2";"4";"5";"4";"1182";"269";"1878";"2014-10-01 13:23:15.770";"1";;;;;;;;;;;;;;;;;;;;;;;;;;;;;;;;;;;;;;;;;;;;;;;;;;;;;;;;;;;;;;;;;;;;;;;;;;;;;;;;
"Grg170dx";"1996";;"Windows 7";"Rachel's Experiment (D.T.)";"1.0";"2";"1";"1";"2";"1";"1";"2014-10-01 13:05:53.029";"2014-10-01 13:23:42.807";"1";"1";"1";"188";"187";"module.devaluation_block1.exec-7138.deval1";"7643";"2014-10-01 13:23:29.812";"19";"9";"8";"9";"1503";"1904";"1218";"2014-10-01 13:23:22.170";"3";;;;;;;;;;;;;;;;;;;;;;;;;;;;;;;;;;;;;;;;;;;;;;;;;;;;;;;;;;;;;;;;;;;;;;;;;;;;;;;;
"Grg170dx";"1996";;"Windows 7";"Rachel's Experiment (D.T.)";"1.0";"2";"1";"1";"2";"1";"1";"2014-10-01 13:05:53.029";"2014-10-01 13:23:42.807";"1";"1";"1";"189";"188";"module.devaluation_block1.exec-7138.deval1";"3737";"2014-10-01 13:23:33.601";"24";"5";"5";"5";"397";"82";"241";"2014-10-01 13:23:29.863";"3";;;;;;;;;;;;;;;;;;;;;;;;;;;;;;;;;;;;;;;;;;;;;;;;;;;;;;;;;;;;;;;;;;;;;;;;;;;;;;;;
"Grg170dx";"1996";;"Windows 7";"Rachel's Experiment (D.T.)";"1.0";"2";"1";"1";"2";"1";"1";"2014-10-01 13:05:53.029";"2014-10-01 13:23:42.807";"1";"1";"1";"190";"189";"module.devaluation_block1.exec-7138.deval1";"5844";"2014-10-01 13:23:39.495";"7";"6";"8";"7";"1262";"1092";"471";"2014-10-01 13:23:33.650";"1";;;;;;;;;;;;;;;;;;;;;;;;;;;;;;;;;;;;;;;;;;;;;;;;;;;;;;;;;;;;;;;;;;;;;;;;;;;;;;;;
