"user.name";"user.yearOfBirth";"user.sex";"user.osName";"module.name";"module.version";"module.online.subject.code";"module.online.study.id";"module.online.module.nr";"module.online.group.nr";"session.id";"session.index";"session.startTime";"session.endTime";"session.completed";"session.node-4143.conditionType";"session.node-9122.blockOrder";"session.node-9122.IATorder";"session.node-9122.keyOrder";"trial.id";"trial.index";"trial.name";"trial.GoNoGo1.durationTime";"trial.GoNoGo1.endTime";"trial.GoNoGo1.icon";"trial.GoNoGo1.location";"trial.GoNoGo1.outcome";"trial.GoNoGo1.response";"trial.GoNoGo1.result";"trial.GoNoGo1.RT";"trial.GoNoGo1.signal";"trial.GoNoGo1.startTime";"trial.GoNoGo1.stimulus type";"trial.GoNoGo2.durationTime";"trial.GoNoGo2.endTime";"trial.GoNoGo2.icon";"trial.GoNoGo2.location";"trial.GoNoGo2.outcome";"trial.GoNoGo2.response";"trial.GoNoGo2.result";"trial.GoNoGo2.RT";"trial.GoNoGo2.signal";"trial.GoNoGo2.startTime";"trial.GoNoGo2.stimulus type";"trial.GoNoGo3.durationTime";"trial.GoNoGo3.endTime";"trial.GoNoGo3.icon";"trial.GoNoGo3.location";"trial.GoNoGo3.outcome";"trial.GoNoGo3.response";"trial.GoNoGo3.result";"trial.GoNoGo3.RT";"trial.GoNoGo3.signal";"trial.GoNoGo3.startTime";"trial.GoNoGo3.stimulus type";"trial.GoNoGo4.durationTime";"trial.GoNoGo4.endTime";"trial.GoNoGo4.icon";"trial.GoNoGo4.location";"trial.GoNoGo4.outcome";"trial.GoNoGo4.response";"trial.GoNoGo4.result";"trial.GoNoGo4.RT";"trial.GoNoGo4.signal";"trial.GoNoGo4.startTime";"trial.GoNoGo4.stimulus type";"trial.GoNoGo5.durationTime";"trial.GoNoGo5.endTime";"trial.GoNoGo5.icon";"trial.GoNoGo5.location";"trial.GoNoGo5.outcome";"trial.GoNoGo5.response";"trial.GoNoGo5.result";"trial.GoNoGo5.RT";"trial.GoNoGo5.signal";"trial.GoNoGo5.startTime";"trial.GoNoGo5.stimulus type";"trial.GoNoGo6.durationTime";"trial.GoNoGo6.endTime";"trial.GoNoGo6.icon";"trial.GoNoGo6.location";"trial.GoNoGo6.outcome";"trial.GoNoGo6.response";"trial.GoNoGo6.result";"trial.GoNoGo6.RT";"trial.GoNoGo6.signal";"trial.GoNoGo6.startTime";"trial.GoNoGo6.stimulus type";"trial.GoNoGo7.durationTime";"trial.GoNoGo7.endTime";"trial.GoNoGo7.icon";"trial.GoNoGo7.location";"trial.GoNoGo7.outcome";"trial.GoNoGo7.response";"trial.GoNoGo7.result";"trial.GoNoGo7.RT";"trial.GoNoGo7.signal";"trial.GoNoGo7.startTime";"trial.GoNoGo7.stimulus type";"trial.GoNoGo8.durationTime";"trial.GoNoGo8.endTime";"trial.GoNoGo8.icon";"trial.GoNoGo8.location";"trial.GoNoGo8.outcome";"trial.GoNoGo8.response";"trial.GoNoGo8.result";"trial.GoNoGo8.RT";"trial.GoNoGo8.signal";"trial.GoNoGo8.startTime";"trial.GoNoGo8.stimulus type";"trial.GoNoGo_Practice.durationTime";"trial.GoNoGo_Practice.endTime";"trial.GoNoGo_Practice.icon";"trial.GoNoGo_Practice.location";"trial.GoNoGo_Practice.outcome";"trial.GoNoGo_Practice.response";"trial.GoNoGo_Practice.result";"trial.GoNoGo_Practice.RT";"trial.GoNoGo_Practice.signal";"trial.GoNoGo_Practice.startTime";"trial.GoNoGo_Practice.stimulus type";"trial.GoNoGo_Tutorial.durationTime";"trial.GoNoGo_Tutorial.endTime";"trial.GoNoGo_Tutorial.icon";"trial.GoNoGo_Tutorial.location";"trial.GoNoGo_Tutorial.outcome";"trial.GoNoGo_Tutorial.response";"trial.GoNoGo_Tutorial.result";"trial.GoNoGo_Tutorial.RT";"trial.GoNoGo_Tutorial.signal";"trial.GoNoGo_Tutorial.startTime"
"181213";;;"Windows 7";"Rachels Experiment";"1.0";"1";"1";"1";"1";"1";"1";"2013-12-18 12:17:16.635";"";"0";"1";"1";"1";"1";"1";"0";"module.GoNoGotutorial.exec-1182.GoNoGo_Tutorial";;;;;;;;;;;;;;;;;;;;;;;;;;;;;;;;;;;;;;;;;;;;;;;;;;;;;;;;;;;;;;;;;;;;;;;;;;;;;;;;;;;;;;;;;;;;;;;;;;;;"4000";"2013-12-18 12:17:27.381";"leftResponse";"0";"FINISHED";"NONE";"failure";"0";"0";"2013-12-18 12:17:23.381"
"181213";;;"Windows 7";"Rachels Experiment";"1.0";"1";"1";"1";"1";"1";"1";"2013-12-18 12:17:16.635";"";"0";"1";"1";"1";"1";"2";"1";"module.GoNoGotutorial.exec-1182.GoNoGo_Tutorial";;;;;;;;;;;;;;;;;;;;;;;;;;;;;;;;;;;;;;;;;;;;;;;;;;;;;;;;;;;;;;;;;;;;;;;;;;;;;;;;;;;;;;;;;;;;;;;;;;;;"3999";"2013-12-18 12:17:32.702";"rightResponse";"1";"FINISHED";"NONE";"failure";"0";"0";"2013-12-18 12:17:28.702"
"181213";;;"Windows 7";"Rachels Experiment";"1.0";"1";"1";"1";"1";"1";"1";"2013-12-18 12:17:16.635";"";"0";"1";"1";"1";"1";"3";"2";"module.GoNoGotutorial.exec-1182.GoNoGo_Tutorial";;;;;;;;;;;;;;;;;;;;;;;;;;;;;;;;;;;;;;;;;;;;;;;;;;;;;;;;;;;;;;;;;;;;;;;;;;;;;;;;;;;;;;;;;;;;;;;;;;;;"4000";"2013-12-18 12:17:37.990";"signalResponse";"0";"FINISHED";"NONE";"success";"0";"1";"2013-12-18 12:17:33.990"
"181213";;;"Windows 7";"Rachels Experiment";"1.0";"1";"1";"1";"1";"1";"1";"2013-12-18 12:17:16.635";"";"0";"1";"1";"1";"1";"4";"3";"module.GoNoGopractice.exec-6131.GoNoGo_Practice";;;;;;;;;;;;;;;;;;;;;;;;;;;;;;;;;;;;;;;;;;;;;;;;;;;;;;;;;;;;;;;;;;;;;;;;;;;;;;;;;;;;;;;;;"1956";"2013-12-18 12:17:44.735";"18";"0";"FINISHED";"RIGHT";"failure";"453";"0";"2013-12-18 12:17:42.779";"3";;;;;;;;;;
"181213";;;"Windows 7";"Rachels Experiment";"1.0";"1";"1";"1";"1";"1";"1";"2013-12-18 12:17:16.635";"";"0";"1";"1";"1";"1";"5";"4";"module.GoNoGopractice.exec-6131.GoNoGo_Practice";;;;;;;;;;;;;;;;;;;;;;;;;;;;;;;;;;;;;;;;;;;;;;;;;;;;;;;;;;;;;;;;;;;;;;;;;;;;;;;;;;;;;;;;;"1953";"2013-12-18 12:17:47.974";"21";"1";"FINISHED";"RIGHT";"success";"659";"0";"2013-12-18 12:17:46.021";"3";;;;;;;;;;
"181213";;;"Windows 7";"Rachels Experiment";"1.0";"1";"1";"1";"1";"1";"1";"2013-12-18 12:17:16.635";"";"0";"1";"1";"1";"1";"6";"5";"module.GoNoGopractice.exec-6131.GoNoGo_Practice";;;;;;;;;;;;;;;;;;;;;;;;;;;;;;;;;;;;;;;;;;;;;;;;;;;;;;;;;;;;;;;;;;;;;;;;;;;;;;;;;;;;;;;;;"1952";"2013-12-18 12:17:51.205";"14";"1";"FINISHED";"RIGHT";"failure";"348";"1";"2013-12-18 12:17:49.251";"2";;;;;;;;;;
"181213";;;"Windows 7";"Rachels Experiment";"1.0";"1";"1";"1";"1";"1";"1";"2013-12-18 12:17:16.635";"";"0";"1";"1";"1";"1";"7";"6";"module.GoNoGopractice.exec-6131.GoNoGo_Practice";;;;;;;;;;;;;;;;;;;;;;;;;;;;;;;;;;;;;;;;;;;;;;;;;;;;;;;;;;;;;;;;;;;;;;;;;;;;;;;;;;;;;;;;;"1950";"2013-12-18 12:17:54.431";"26";"0";"FINISHED";"LEFT";"success";"1056";"0";"2013-12-18 12:17:52.480";"3";;;;;;;;;;
"181213";;;"Windows 7";"Rachels Experiment";"1.0";"1";"1";"1";"1";"1";"1";"2013-12-18 12:17:16.635";"";"0";"1";"1";"1";"1";"8";"7";"module.GoNoGopractice.exec-6131.GoNoGo_Practice";;;;;;;;;;;;;;;;;;;;;;;;;;;;;;;;;;;;;;;;;;;;;;;;;;;;;;;;;;;;;;;;;;;;;;;;;;;;;;;;;;;;;;;;;"1951";"2013-12-18 12:17:57.666";"2";"0";"FINISHED";"RIGHT";"failure";"854";"0";"2013-12-18 12:17:55.714";"1";;;;;;;;;;
"181213";;;"Windows 7";"Rachels Experiment";"1.0";"1";"1";"1";"1";"1";"1";"2013-12-18 12:17:16.635";"";"0";"1";"1";"1";"1";"9";"8";"module.GoNoGopractice.exec-6131.GoNoGo_Practice";;;;;;;;;;;;;;;;;;;;;;;;;;;;;;;;;;;;;;;;;;;;;;;;;;;;;;;;;;;;;;;;;;;;;;;;;;;;;;;;;;;;;;;;;"1953";"2013-12-18 12:18:00.902";"30";"0";"FINISHED";"NONE";"success";"0";"1";"2013-12-18 12:17:58.948";"3";;;;;;;;;;
"181213";;;"Windows 7";"Rachels Experiment";"1.0";"1";"1";"1";"1";"1";"1";"2013-12-18 12:17:16.635";"";"0";"1";"1";"1";"1";"10";"9";"module.GoNoGopractice.exec-6131.GoNoGo_Practice";;;;;;;;;;;;;;;;;;;;;;;;;;;;;;;;;;;;;;;;;;;;;;;;;;;;;;;;;;;;;;;;;;;;;;;;;;;;;;;;;;;;;;;;;"1954";"2013-12-18 12:18:04.273";"6";"1";"FINISHED";"RIGHT";"failure";"769";"1";"2013-12-18 12:18:02.319";"1";;;;;;;;;;
"181213";;;"Windows 7";"Rachels Experiment";"1.0";"1";"1";"1";"1";"1";"1";"2013-12-18 12:17:16.635";"";"0";"1";"1";"1";"1";"11";"10";"module.GoNoGopractice.exec-6131.GoNoGo_Practice";;;;;;;;;;;;;;;;;;;;;;;;;;;;;;;;;;;;;;;;;;;;;;;;;;;;;;;;;;;;;;;;;;;;;;;;;;;;;;;;;;;;;;;;;"1953";"2013-12-18 12:18:07.507";"34";"0";"FINISHED";"NONE";"failure";"0";"0";"2013-12-18 12:18:05.553";"3";;;;;;;;;;
"181213";;;"Windows 7";"Rachels Experiment";"1.0";"1";"1";"1";"1";"1";"1";"2013-12-18 12:17:16.635";"";"0";"1";"1";"1";"1";"12";"11";"module.GoNoGopractice.exec-6131.GoNoGo_Practice";;;;;;;;;;;;;;;;;;;;;;;;;;;;;;;;;;;;;;;;;;;;;;;;;;;;;;;;;;;;;;;;;;;;;;;;;;;;;;;;;;;;;;;;;"1953";"2013-12-18 12:18:10.743";"23";"1";"FINISHED";"RIGHT";"success";"371";"0";"2013-12-18 12:18:08.789";"3";;;;;;;;;;
"181213";;;"Windows 7";"Rachels Experiment";"1.0";"1";"1";"1";"1";"1";"1";"2013-12-18 12:17:16.635";"";"0";"1";"1";"1";"1";"13";"12";"module.GoNoGopractice.exec-6131.GoNoGo_Practice";;;;;;;;;;;;;;;;;;;;;;;;;;;;;;;;;;;;;;;;;;;;;;;;;;;;;;;;;;;;;;;;;;;;;;;;;;;;;;;;;;;;;;;;;"1951";"2013-12-18 12:18:13.975";"13";"0";"FINISHED";"NONE";"success";"0";"1";"2013-12-18 12:18:12.024";"2";;;;;;;;;;
"181213";;;"Windows 7";"Rachels Experiment";"1.0";"1";"1";"1";"1";"1";"1";"2013-12-18 12:17:16.635";"";"0";"1";"1";"1";"1";"14";"13";"module.GoNoGopractice.exec-6131.GoNoGo_Practice";;;;;;;;;;;;;;;;;;;;;;;;;;;;;;;;;;;;;;;;;;;;;;;;;;;;;;;;;;;;;;;;;;;;;;;;;;;;;;;;;;;;;;;;;"1950";"2013-12-18 12:18:17.208";"3";"1";"FINISHED";"RIGHT";"success";"351";"0";"2013-12-18 12:18:15.256";"1";;;;;;;;;;
"181213";;;"Windows 7";"Rachels Experiment";"1.0";"1";"1";"1";"1";"1";"1";"2013-12-18 12:17:16.635";"";"0";"1";"1";"1";"1";"15";"14";"module.GoNoGopractice.exec-6131.GoNoGo_Practice";;;;;;;;;;;;;;;;;;;;;;;;;;;;;;;;;;;;;;;;;;;;;;;;;;;;;;;;;;;;;;;;;;;;;;;;;;;;;;;;;;;;;;;;;"1951";"2013-12-18 12:18:20.440";"27";"1";"FINISHED";"RIGHT";"failure";"383";"1";"2013-12-18 12:18:18.489";"3";;;;;;;;;;
"181213";;;"Windows 7";"Rachels Experiment";"1.0";"1";"1";"1";"1";"1";"1";"2013-12-18 12:17:16.635";"";"0";"1";"1";"1";"1";"16";"15";"module.training_block1.exec-7704.GoNoGo1";"1250";"2013-12-18 12:18:26.579";"7";"0";"FINISHED";"LEFT";"failure";"351";"1";"2013-12-18 12:18:25.329";"1";;;;;;;;;;;;;;;;;;;;;;;;;;;;;;;;;;;;;;;;;;;;;;;;;;;;;;;;;;;;;;;;;;;;;;;;;;;;;;;;;;;;;;;;;;;;;;;;;;
"181213";;;"Windows 7";"Rachels Experiment";"1.0";"1";"1";"1";"1";"1";"1";"2013-12-18 12:17:16.635";"";"0";"1";"1";"1";"1";"17";"16";"module.training_block1.exec-7704.GoNoGo1";"1249";"2013-12-18 12:18:29.111";"4";"0";"FINISHED";"LEFT";"failure";"339";"1";"2013-12-18 12:18:27.861";"1";;;;;;;;;;;;;;;;;;;;;;;;;;;;;;;;;;;;;;;;;;;;;;;;;;;;;;;;;;;;;;;;;;;;;;;;;;;;;;;;;;;;;;;;;;;;;;;;;;
"181213";;;"Windows 7";"Rachels Experiment";"1.0";"1";"1";"1";"1";"1";"1";"2013-12-18 12:17:16.635";"";"0";"1";"1";"1";"1";"18";"17";"module.training_block1.exec-7704.GoNoGo1";"1249";"2013-12-18 12:18:31.637";"34";"0";"FINISHED";"NONE";"success";"0";"1";"2013-12-18 12:18:30.387";"3";;;;;;;;;;;;;;;;;;;;;;;;;;;;;;;;;;;;;;;;;;;;;;;;;;;;;;;;;;;;;;;;;;;;;;;;;;;;;;;;;;;;;;;;;;;;;;;;;;
"181213";;;"Windows 7";"Rachels Experiment";"1.0";"1";"1";"1";"1";"1";"1";"2013-12-18 12:17:16.635";"";"0";"1";"1";"1";"1";"19";"18";"module.training_block1.exec-7704.GoNoGo1";"1250";"2013-12-18 12:18:34.166";"9";"0";"FINISHED";"LEFT";"success";"676";"0";"2013-12-18 12:18:32.916";"2";;;;;;;;;;;;;;;;;;;;;;;;;;;;;;;;;;;;;;;;;;;;;;;;;;;;;;;;;;;;;;;;;;;;;;;;;;;;;;;;;;;;;;;;;;;;;;;;;;
"181213";;;"Windows 7";"Rachels Experiment";"1.0";"1";"1";"1";"1";"1";"1";"2013-12-18 12:17:16.635";"";"0";"1";"1";"1";"1";"20";"19";"module.training_block1.exec-7704.GoNoGo1";"1249";"2013-12-18 12:18:36.695";"11";"1";"FINISHED";"RIGHT";"success";"354";"0";"2013-12-18 12:18:35.445";"2";;;;;;;;;;;;;;;;;;;;;;;;;;;;;;;;;;;;;;;;;;;;;;;;;;;;;;;;;;;;;;;;;;;;;;;;;;;;;;;;;;;;;;;;;;;;;;;;;;
"181213";;;"Windows 7";"Rachels Experiment";"1.0";"1";"1";"1";"1";"1";"1";"2013-12-18 12:17:16.635";"";"0";"1";"1";"1";"1";"21";"20";"module.training_block1.exec-7704.GoNoGo1";"1249";"2013-12-18 12:18:39.229";"15";"0";"FINISHED";"LEFT";"success";"373";"0";"2013-12-18 12:18:37.979";"2";;;;;;;;;;;;;;;;;;;;;;;;;;;;;;;;;;;;;;;;;;;;;;;;;;;;;;;;;;;;;;;;;;;;;;;;;;;;;;;;;;;;;;;;;;;;;;;;;;
"181213";;;"Windows 7";"Rachels Experiment";"1.0";"1";"1";"1";"1";"1";"1";"2013-12-18 12:17:16.635";"";"0";"1";"1";"1";"1";"22";"21";"module.training_block1.exec-7704.GoNoGo1";"1249";"2013-12-18 12:18:41.756";"1";"0";"FINISHED";"NONE";"success";"0";"1";"2013-12-18 12:18:40.506";"1";;;;;;;;;;;;;;;;;;;;;;;;;;;;;;;;;;;;;;;;;;;;;;;;;;;;;;;;;;;;;;;;;;;;;;;;;;;;;;;;;;;;;;;;;;;;;;;;;;
"181213";;;"Windows 7";"Rachels Experiment";"1.0";"1";"1";"1";"1";"1";"1";"2013-12-18 12:17:16.635";"";"0";"1";"1";"1";"1";"23";"22";"module.training_block1.exec-7704.GoNoGo1";"1249";"2013-12-18 12:18:44.285";"25";"1";"FINISHED";"RIGHT";"success";"445";"0";"2013-12-18 12:18:43.035";"3";;;;;;;;;;;;;;;;;;;;;;;;;;;;;;;;;;;;;;;;;;;;;;;;;;;;;;;;;;;;;;;;;;;;;;;;;;;;;;;;;;;;;;;;;;;;;;;;;;
"181213";;;"Windows 7";"Rachels Experiment";"1.0";"1";"1";"1";"1";"1";"1";"2013-12-18 12:17:16.635";"";"0";"1";"1";"1";"1";"24";"23";"module.training_block1.exec-7704.GoNoGo1";"1249";"2013-12-18 12:18:46.814";"2";"1";"FINISHED";"NONE";"success";"0";"1";"2013-12-18 12:18:45.564";"1";;;;;;;;;;;;;;;;;;;;;;;;;;;;;;;;;;;;;;;;;;;;;;;;;;;;;;;;;;;;;;;;;;;;;;;;;;;;;;;;;;;;;;;;;;;;;;;;;;
"181213";;;"Windows 7";"Rachels Experiment";"1.0";"1";"1";"1";"1";"1";"1";"2013-12-18 12:17:16.635";"";"0";"1";"1";"1";"1";"25";"24";"module.training_block1.exec-7704.GoNoGo1";"1249";"2013-12-18 12:18:49.341";"28";"1";"FINISHED";"RIGHT";"success";"364";"0";"2013-12-18 12:18:48.091";"3";;;;;;;;;;;;;;;;;;;;;;;;;;;;;;;;;;;;;;;;;;;;;;;;;;;;;;;;;;;;;;;;;;;;;;;;;;;;;;;;;;;;;;;;;;;;;;;;;;
"181213";;;"Windows 7";"Rachels Experiment";"1.0";"1";"1";"1";"1";"1";"1";"2013-12-18 12:17:16.635";"";"0";"1";"1";"1";"1";"26";"25";"module.training_block1.exec-7704.GoNoGo1";"1249";"2013-12-18 12:18:51.875";"8";"1";"FINISHED";"NONE";"success";"0";"1";"2013-12-18 12:18:50.625";"1";;;;;;;;;;;;;;;;;;;;;;;;;;;;;;;;;;;;;;;;;;;;;;;;;;;;;;;;;;;;;;;;;;;;;;;;;;;;;;;;;;;;;;;;;;;;;;;;;;
"181213";;;"Windows 7";"Rachels Experiment";"1.0";"1";"1";"1";"1";"1";"1";"2013-12-18 12:17:16.635";"";"0";"1";"1";"1";"1";"27";"26";"module.training_block1.exec-7704.GoNoGo1";"1249";"2013-12-18 12:18:54.403";"29";"0";"FINISHED";"NONE";"success";"0";"1";"2013-12-18 12:18:53.153";"3";;;;;;;;;;;;;;;;;;;;;;;;;;;;;;;;;;;;;;;;;;;;;;;;;;;;;;;;;;;;;;;;;;;;;;;;;;;;;;;;;;;;;;;;;;;;;;;;;;
"181213";;;"Windows 7";"Rachels Experiment";"1.0";"1";"1";"1";"1";"1";"1";"2013-12-18 12:17:16.635";"";"0";"1";"1";"1";"1";"28";"27";"module.training_block1.exec-7704.GoNoGo1";"1249";"2013-12-18 12:18:56.929";"14";"0";"FINISHED";"LEFT";"success";"352";"0";"2013-12-18 12:18:55.679";"2";;;;;;;;;;;;;;;;;;;;;;;;;;;;;;;;;;;;;;;;;;;;;;;;;;;;;;;;;;;;;;;;;;;;;;;;;;;;;;;;;;;;;;;;;;;;;;;;;;
"181213";;;"Windows 7";"Rachels Experiment";"1.0";"1";"1";"1";"1";"1";"1";"2013-12-18 12:17:16.635";"";"0";"1";"1";"1";"1";"29";"28";"module.training_block1.exec-7704.GoNoGo1";"1249";"2013-12-18 12:18:59.456";"30";"0";"FINISHED";"NONE";"success";"0";"1";"2013-12-18 12:18:58.206";"3";;;;;;;;;;;;;;;;;;;;;;;;;;;;;;;;;;;;;;;;;;;;;;;;;;;;;;;;;;;;;;;;;;;;;;;;;;;;;;;;;;;;;;;;;;;;;;;;;;
"181213";;;"Windows 7";"Rachels Experiment";"1.0";"1";"1";"1";"1";"1";"1";"2013-12-18 12:17:16.635";"";"0";"1";"1";"1";"1";"30";"29";"module.training_block1.exec-7704.GoNoGo1";"1249";"2013-12-18 12:19:01.982";"31";"1";"FINISHED";"RIGHT";"success";"491";"0";"2013-12-18 12:19:00.732";"3";;;;;;;;;;;;;;;;;;;;;;;;;;;;;;;;;;;;;;;;;;;;;;;;;;;;;;;;;;;;;;;;;;;;;;;;;;;;;;;;;;;;;;;;;;;;;;;;;;
"181213";;;"Windows 7";"Rachels Experiment";"1.0";"1";"1";"1";"1";"1";"1";"2013-12-18 12:17:16.635";"";"0";"1";"1";"1";"1";"31";"30";"module.training_block1.exec-7704.GoNoGo1";"1249";"2013-12-18 12:19:04.504";"23";"1";"FINISHED";"NONE";"success";"0";"1";"2013-12-18 12:19:03.254";"3";;;;;;;;;;;;;;;;;;;;;;;;;;;;;;;;;;;;;;;;;;;;;;;;;;;;;;;;;;;;;;;;;;;;;;;;;;;;;;;;;;;;;;;;;;;;;;;;;;
"181213";;;"Windows 7";"Rachels Experiment";"1.0";"1";"1";"1";"1";"1";"1";"2013-12-18 12:17:16.635";"";"0";"1";"1";"1";"1";"32";"31";"module.training_block1.exec-7704.GoNoGo1";"1249";"2013-12-18 12:19:07.028";"6";"0";"FINISHED";"NONE";"success";"0";"1";"2013-12-18 12:19:05.778";"1";;;;;;;;;;;;;;;;;;;;;;;;;;;;;;;;;;;;;;;;;;;;;;;;;;;;;;;;;;;;;;;;;;;;;;;;;;;;;;;;;;;;;;;;;;;;;;;;;;
"181213";;;"Windows 7";"Rachels Experiment";"1.0";"1";"1";"1";"1";"1";"1";"2013-12-18 12:17:16.635";"";"0";"1";"1";"1";"1";"33";"32";"module.training_block1.exec-7704.GoNoGo1";"1249";"2013-12-18 12:19:09.555";"26";"1";"FINISHED";"RIGHT";"success";"375";"0";"2013-12-18 12:19:08.305";"3";;;;;;;;;;;;;;;;;;;;;;;;;;;;;;;;;;;;;;;;;;;;;;;;;;;;;;;;;;;;;;;;;;;;;;;;;;;;;;;;;;;;;;;;;;;;;;;;;;
"181213";;;"Windows 7";"Rachels Experiment";"1.0";"1";"1";"1";"1";"1";"1";"2013-12-18 12:17:16.635";"";"0";"1";"1";"1";"1";"34";"33";"module.training_block1.exec-7704.GoNoGo1";"1249";"2013-12-18 12:19:12.078";"32";"0";"FINISHED";"LEFT";"success";"564";"0";"2013-12-18 12:19:10.828";"3";;;;;;;;;;;;;;;;;;;;;;;;;;;;;;;;;;;;;;;;;;;;;;;;;;;;;;;;;;;;;;;;;;;;;;;;;;;;;;;;;;;;;;;;;;;;;;;;;;
"181213";;;"Windows 7";"Rachels Experiment";"1.0";"1";"1";"1";"1";"1";"1";"2013-12-18 12:17:16.635";"";"0";"1";"1";"1";"1";"35";"34";"module.training_block1.exec-7704.GoNoGo1";"1249";"2013-12-18 12:19:14.600";"13";"1";"FINISHED";"RIGHT";"success";"378";"0";"2013-12-18 12:19:13.350";"2";;;;;;;;;;;;;;;;;;;;;;;;;;;;;;;;;;;;;;;;;;;;;;;;;;;;;;;;;;;;;;;;;;;;;;;;;;;;;;;;;;;;;;;;;;;;;;;;;;
"181213";;;"Windows 7";"Rachels Experiment";"1.0";"1";"1";"1";"1";"1";"1";"2013-12-18 12:17:16.635";"";"0";"1";"1";"1";"1";"36";"35";"module.training_block1.exec-7704.GoNoGo1";"1250";"2013-12-18 12:19:17.127";"18";"0";"FINISHED";"NONE";"success";"0";"1";"2013-12-18 12:19:15.877";"3";;;;;;;;;;;;;;;;;;;;;;;;;;;;;;;;;;;;;;;;;;;;;;;;;;;;;;;;;;;;;;;;;;;;;;;;;;;;;;;;;;;;;;;;;;;;;;;;;;
"181213";;;"Windows 7";"Rachels Experiment";"1.0";"1";"1";"1";"1";"1";"1";"2013-12-18 12:17:16.635";"";"0";"1";"1";"1";"1";"37";"36";"module.training_block1.exec-7704.GoNoGo1";"1249";"2013-12-18 12:19:19.650";"3";"0";"FINISHED";"NONE";"success";"0";"1";"2013-12-18 12:19:18.400";"1";;;;;;;;;;;;;;;;;;;;;;;;;;;;;;;;;;;;;;;;;;;;;;;;;;;;;;;;;;;;;;;;;;;;;;;;;;;;;;;;;;;;;;;;;;;;;;;;;;
"181213";;;"Windows 7";"Rachels Experiment";"1.0";"1";"1";"1";"1";"1";"1";"2013-12-18 12:17:16.635";"";"0";"1";"1";"1";"1";"38";"37";"module.training_block1.exec-7704.GoNoGo1";"1249";"2013-12-18 12:19:22.172";"27";"1";"FINISHED";"RIGHT";"failure";"381";"1";"2013-12-18 12:19:20.922";"3";;;;;;;;;;;;;;;;;;;;;;;;;;;;;;;;;;;;;;;;;;;;;;;;;;;;;;;;;;;;;;;;;;;;;;;;;;;;;;;;;;;;;;;;;;;;;;;;;;
"181213";;;"Windows 7";"Rachels Experiment";"1.0";"1";"1";"1";"1";"1";"1";"2013-12-18 12:17:16.635";"";"0";"1";"1";"1";"1";"39";"38";"module.training_block1.exec-7704.GoNoGo1";"1249";"2013-12-18 12:19:24.699";"22";"1";"FINISHED";"NONE";"success";"0";"1";"2013-12-18 12:19:23.449";"3";;;;;;;;;;;;;;;;;;;;;;;;;;;;;;;;;;;;;;;;;;;;;;;;;;;;;;;;;;;;;;;;;;;;;;;;;;;;;;;;;;;;;;;;;;;;;;;;;;
"181213";;;"Windows 7";"Rachels Experiment";"1.0";"1";"1";"1";"1";"1";"1";"2013-12-18 12:17:16.635";"";"0";"1";"1";"1";"1";"40";"39";"module.training_block1.exec-7704.GoNoGo1";"1249";"2013-12-18 12:19:27.225";"21";"1";"FINISHED";"RIGHT";"success";"345";"0";"2013-12-18 12:19:25.975";"3";;;;;;;;;;;;;;;;;;;;;;;;;;;;;;;;;;;;;;;;;;;;;;;;;;;;;;;;;;;;;;;;;;;;;;;;;;;;;;;;;;;;;;;;;;;;;;;;;;
"181213";;;"Windows 7";"Rachels Experiment";"1.0";"1";"1";"1";"1";"1";"1";"2013-12-18 12:17:16.635";"";"0";"1";"1";"1";"1";"41";"40";"module.training_block1.exec-7704.GoNoGo1";"1249";"2013-12-18 12:19:29.750";"10";"1";"FINISHED";"RIGHT";"success";"548";"0";"2013-12-18 12:19:28.500";"2";;;;;;;;;;;;;;;;;;;;;;;;;;;;;;;;;;;;;;;;;;;;;;;;;;;;;;;;;;;;;;;;;;;;;;;;;;;;;;;;;;;;;;;;;;;;;;;;;;
"181213";;;"Windows 7";"Rachels Experiment";"1.0";"1";"1";"1";"1";"1";"1";"2013-12-18 12:17:16.635";"";"0";"1";"1";"1";"1";"42";"41";"module.training_block1.exec-7704.GoNoGo1";"1249";"2013-12-18 12:19:32.274";"20";"1";"FINISHED";"NONE";"success";"0";"1";"2013-12-18 12:19:31.024";"3";;;;;;;;;;;;;;;;;;;;;;;;;;;;;;;;;;;;;;;;;;;;;;;;;;;;;;;;;;;;;;;;;;;;;;;;;;;;;;;;;;;;;;;;;;;;;;;;;;
"181213";;;"Windows 7";"Rachels Experiment";"1.0";"1";"1";"1";"1";"1";"1";"2013-12-18 12:17:16.635";"";"0";"1";"1";"1";"1";"43";"42";"module.training_block1.exec-7704.GoNoGo1";"1249";"2013-12-18 12:19:34.798";"24";"1";"FINISHED";"RIGHT";"success";"331";"0";"2013-12-18 12:19:33.548";"3";;;;;;;;;;;;;;;;;;;;;;;;;;;;;;;;;;;;;;;;;;;;;;;;;;;;;;;;;;;;;;;;;;;;;;;;;;;;;;;;;;;;;;;;;;;;;;;;;;
"181213";;;"Windows 7";"Rachels Experiment";"1.0";"1";"1";"1";"1";"1";"1";"2013-12-18 12:17:16.635";"";"0";"1";"1";"1";"1";"44";"43";"module.training_block1.exec-7704.GoNoGo1";"1249";"2013-12-18 12:19:37.323";"19";"1";"FINISHED";"RIGHT";"success";"431";"0";"2013-12-18 12:19:36.073";"3";;;;;;;;;;;;;;;;;;;;;;;;;;;;;;;;;;;;;;;;;;;;;;;;;;;;;;;;;;;;;;;;;;;;;;;;;;;;;;;;;;;;;;;;;;;;;;;;;;
"181213";;;"Windows 7";"Rachels Experiment";"1.0";"1";"1";"1";"1";"1";"1";"2013-12-18 12:17:16.635";"";"0";"1";"1";"1";"1";"45";"44";"module.training_block1.exec-7704.GoNoGo1";"1249";"2013-12-18 12:19:39.847";"16";"0";"FINISHED";"LEFT";"success";"538";"0";"2013-12-18 12:19:38.597";"2";;;;;;;;;;;;;;;;;;;;;;;;;;;;;;;;;;;;;;;;;;;;;;;;;;;;;;;;;;;;;;;;;;;;;;;;;;;;;;;;;;;;;;;;;;;;;;;;;;
"181213";;;"Windows 7";"Rachels Experiment";"1.0";"1";"1";"1";"1";"1";"1";"2013-12-18 12:17:16.635";"";"0";"1";"1";"1";"1";"46";"45";"module.training_block1.exec-7704.GoNoGo1";"1249";"2013-12-18 12:19:42.378";"0";"0";"FINISHED";"LEFT";"success";"655";"0";"2013-12-18 12:19:41.128";"1";;;;;;;;;;;;;;;;;;;;;;;;;;;;;;;;;;;;;;;;;;;;;;;;;;;;;;;;;;;;;;;;;;;;;;;;;;;;;;;;;;;;;;;;;;;;;;;;;;
"181213";;;"Windows 7";"Rachels Experiment";"1.0";"1";"1";"1";"1";"1";"1";"2013-12-18 12:17:16.635";"";"0";"1";"1";"1";"1";"47";"46";"module.training_block1.exec-7704.GoNoGo1";"1249";"2013-12-18 12:19:44.903";"33";"0";"FINISHED";"LEFT";"success";"682";"0";"2013-12-18 12:19:43.653";"3";;;;;;;;;;;;;;;;;;;;;;;;;;;;;;;;;;;;;;;;;;;;;;;;;;;;;;;;;;;;;;;;;;;;;;;;;;;;;;;;;;;;;;;;;;;;;;;;;;
"181213";;;"Windows 7";"Rachels Experiment";"1.0";"1";"1";"1";"1";"1";"1";"2013-12-18 12:17:16.635";"";"0";"1";"1";"1";"1";"48";"47";"module.training_block1.exec-7704.GoNoGo1";"1250";"2013-12-18 12:19:47.429";"12";"0";"FINISHED";"LEFT";"failure";"613";"1";"2013-12-18 12:19:46.179";"2";;;;;;;;;;;;;;;;;;;;;;;;;;;;;;;;;;;;;;;;;;;;;;;;;;;;;;;;;;;;;;;;;;;;;;;;;;;;;;;;;;;;;;;;;;;;;;;;;;
"181213";;;"Windows 7";"Rachels Experiment";"1.0";"1";"1";"1";"1";"1";"1";"2013-12-18 12:17:16.635";"";"0";"1";"1";"1";"1";"49";"48";"module.training_block1.exec-7704.GoNoGo1";"1249";"2013-12-18 12:19:49.954";"35";"1";"FINISHED";"NONE";"success";"0";"1";"2013-12-18 12:19:48.704";"3";;;;;;;;;;;;;;;;;;;;;;;;;;;;;;;;;;;;;;;;;;;;;;;;;;;;;;;;;;;;;;;;;;;;;;;;;;;;;;;;;;;;;;;;;;;;;;;;;;
"181213";;;"Windows 7";"Rachels Experiment";"1.0";"1";"1";"1";"1";"1";"1";"2013-12-18 12:17:16.635";"";"0";"1";"1";"1";"1";"50";"49";"module.training_block1.exec-7704.GoNoGo1";"1249";"2013-12-18 12:19:52.478";"5";"0";"FINISHED";"NONE";"success";"0";"1";"2013-12-18 12:19:51.228";"1";;;;;;;;;;;;;;;;;;;;;;;;;;;;;;;;;;;;;;;;;;;;;;;;;;;;;;;;;;;;;;;;;;;;;;;;;;;;;;;;;;;;;;;;;;;;;;;;;;
"181213";;;"Windows 7";"Rachels Experiment";"1.0";"1";"1";"1";"1";"1";"1";"2013-12-18 12:17:16.635";"";"0";"1";"1";"1";"1";"51";"50";"module.training_block1.exec-7704.GoNoGo1";"1250";"2013-12-18 12:19:55.003";"17";"1";"FINISHED";"RIGHT";"success";"494";"0";"2013-12-18 12:19:53.753";"2";;;;;;;;;;;;;;;;;;;;;;;;;;;;;;;;;;;;;;;;;;;;;;;;;;;;;;;;;;;;;;;;;;;;;;;;;;;;;;;;;;;;;;;;;;;;;;;;;;
"181213";;;"Windows 7";"Rachels Experiment";"1.0";"1";"1";"1";"1";"1";"1";"2013-12-18 12:17:16.635";"";"0";"1";"1";"1";"1";"52";"51";"module.training_block2.exec-1797.GoNoGo2";;;;;;;;;;;;"1249";"2013-12-18 12:20:10.650";"6";"0";"FINISHED";"NONE";"success";"0";"1";"2013-12-18 12:20:09.400";"1";;;;;;;;;;;;;;;;;;;;;;;;;;;;;;;;;;;;;;;;;;;;;;;;;;;;;;;;;;;;;;;;;;;;;;;;;;;;;;;;;;;;;;;
"181213";;;"Windows 7";"Rachels Experiment";"1.0";"1";"1";"1";"1";"1";"1";"2013-12-18 12:17:16.635";"";"0";"1";"1";"1";"1";"53";"52";"module.training_block2.exec-1797.GoNoGo2";;;;;;;;;;;;"1249";"2013-12-18 12:20:13.171";"2";"0";"FINISHED";"NONE";"success";"0";"1";"2013-12-18 12:20:11.921";"1";;;;;;;;;;;;;;;;;;;;;;;;;;;;;;;;;;;;;;;;;;;;;;;;;;;;;;;;;;;;;;;;;;;;;;;;;;;;;;;;;;;;;;;
"181213";;;"Windows 7";"Rachels Experiment";"1.0";"1";"1";"1";"1";"1";"1";"2013-12-18 12:17:16.635";"";"0";"1";"1";"1";"1";"54";"53";"module.training_block2.exec-1797.GoNoGo2";;;;;;;;;;;;"1250";"2013-12-18 12:20:15.693";"11";"0";"FINISHED";"LEFT";"success";"581";"0";"2013-12-18 12:20:14.443";"2";;;;;;;;;;;;;;;;;;;;;;;;;;;;;;;;;;;;;;;;;;;;;;;;;;;;;;;;;;;;;;;;;;;;;;;;;;;;;;;;;;;;;;;
"181213";;;"Windows 7";"Rachels Experiment";"1.0";"1";"1";"1";"1";"1";"1";"2013-12-18 12:17:16.635";"";"0";"1";"1";"1";"1";"55";"54";"module.training_block2.exec-1797.GoNoGo2";;;;;;;;;;;;"1249";"2013-12-18 12:20:18.214";"22";"1";"FINISHED";"NONE";"success";"0";"1";"2013-12-18 12:20:16.964";"3";;;;;;;;;;;;;;;;;;;;;;;;;;;;;;;;;;;;;;;;;;;;;;;;;;;;;;;;;;;;;;;;;;;;;;;;;;;;;;;;;;;;;;;
"181213";;;"Windows 7";"Rachels Experiment";"1.0";"1";"1";"1";"1";"1";"1";"2013-12-18 12:17:16.635";"";"0";"1";"1";"1";"1";"56";"55";"module.training_block2.exec-1797.GoNoGo2";;;;;;;;;;;;"1250";"2013-12-18 12:20:20.735";"18";"1";"FINISHED";"NONE";"success";"0";"1";"2013-12-18 12:20:19.485";"3";;;;;;;;;;;;;;;;;;;;;;;;;;;;;;;;;;;;;;;;;;;;;;;;;;;;;;;;;;;;;;;;;;;;;;;;;;;;;;;;;;;;;;;
"181213";;;"Windows 7";"Rachels Experiment";"1.0";"1";"1";"1";"1";"1";"1";"2013-12-18 12:17:16.635";"";"0";"1";"1";"1";"1";"57";"56";"module.training_block2.exec-1797.GoNoGo2";;;;;;;;;;;;"1250";"2013-12-18 12:20:23.256";"16";"1";"FINISHED";"NONE";"success";"0";"1";"2013-12-18 12:20:22.006";"2";;;;;;;;;;;;;;;;;;;;;;;;;;;;;;;;;;;;;;;;;;;;;;;;;;;;;;;;;;;;;;;;;;;;;;;;;;;;;;;;;;;;;;;
"181213";;;"Windows 7";"Rachels Experiment";"1.0";"1";"1";"1";"1";"1";"1";"2013-12-18 12:17:16.635";"";"0";"1";"1";"1";"1";"58";"57";"module.training_block2.exec-1797.GoNoGo2";;;;;;;;;;;;"1250";"2013-12-18 12:20:25.777";"23";"0";"FINISHED";"LEFT";"success";"481";"0";"2013-12-18 12:20:24.527";"3";;;;;;;;;;;;;;;;;;;;;;;;;;;;;;;;;;;;;;;;;;;;;;;;;;;;;;;;;;;;;;;;;;;;;;;;;;;;;;;;;;;;;;;
"181213";;;"Windows 7";"Rachels Experiment";"1.0";"1";"1";"1";"1";"1";"1";"2013-12-18 12:17:16.635";"";"0";"1";"1";"1";"1";"59";"58";"module.training_block2.exec-1797.GoNoGo2";;;;;;;;;;;;"1250";"2013-12-18 12:20:28.297";"9";"1";"FINISHED";"RIGHT";"success";"544";"0";"2013-12-18 12:20:27.047";"2";;;;;;;;;;;;;;;;;;;;;;;;;;;;;;;;;;;;;;;;;;;;;;;;;;;;;;;;;;;;;;;;;;;;;;;;;;;;;;;;;;;;;;;
"181213";;;"Windows 7";"Rachels Experiment";"1.0";"1";"1";"1";"1";"1";"1";"2013-12-18 12:17:16.635";"";"0";"1";"1";"1";"1";"60";"59";"module.training_block2.exec-1797.GoNoGo2";;;;;;;;;;;;"1250";"2013-12-18 12:20:30.818";"29";"0";"FINISHED";"NONE";"success";"0";"1";"2013-12-18 12:20:29.568";"3";;;;;;;;;;;;;;;;;;;;;;;;;;;;;;;;;;;;;;;;;;;;;;;;;;;;;;;;;;;;;;;;;;;;;;;;;;;;;;;;;;;;;;;
"181213";;;"Windows 7";"Rachels Experiment";"1.0";"1";"1";"1";"1";"1";"1";"2013-12-18 12:17:16.635";"";"0";"1";"1";"1";"1";"61";"60";"module.training_block2.exec-1797.GoNoGo2";;;;;;;;;;;;"1250";"2013-12-18 12:20:33.338";"25";"0";"FINISHED";"LEFT";"success";"1207";"0";"2013-12-18 12:20:32.088";"3";;;;;;;;;;;;;;;;;;;;;;;;;;;;;;;;;;;;;;;;;;;;;;;;;;;;;;;;;;;;;;;;;;;;;;;;;;;;;;;;;;;;;;;
"181213";;;"Windows 7";"Rachels Experiment";"1.0";"1";"1";"1";"1";"1";"1";"2013-12-18 12:17:16.635";"";"0";"1";"1";"1";"1";"62";"61";"module.training_block2.exec-1797.GoNoGo2";;;;;;;;;;;;"1250";"2013-12-18 12:20:35.858";"1";"0";"FINISHED";"LEFT";"success";"464";"0";"2013-12-18 12:20:34.608";"1";;;;;;;;;;;;;;;;;;;;;;;;;;;;;;;;;;;;;;;;;;;;;;;;;;;;;;;;;;;;;;;;;;;;;;;;;;;;;;;;;;;;;;;
"181213";;;"Windows 7";"Rachels Experiment";"1.0";"1";"1";"1";"1";"1";"1";"2013-12-18 12:17:16.635";"";"0";"1";"1";"1";"1";"63";"62";"module.training_block2.exec-1797.GoNoGo2";;;;;;;;;;;;"1249";"2013-12-18 12:20:38.377";"27";"0";"FINISHED";"LEFT";"success";"496";"0";"2013-12-18 12:20:37.127";"3";;;;;;;;;;;;;;;;;;;;;;;;;;;;;;;;;;;;;;;;;;;;;;;;;;;;;;;;;;;;;;;;;;;;;;;;;;;;;;;;;;;;;;;
"181213";;;"Windows 7";"Rachels Experiment";"1.0";"1";"1";"1";"1";"1";"1";"2013-12-18 12:17:16.635";"";"0";"1";"1";"1";"1";"64";"63";"module.training_block2.exec-1797.GoNoGo2";;;;;;;;;;;;"1250";"2013-12-18 12:20:40.897";"20";"0";"FINISHED";"LEFT";"success";"825";"0";"2013-12-18 12:20:39.647";"3";;;;;;;;;;;;;;;;;;;;;;;;;;;;;;;;;;;;;;;;;;;;;;;;;;;;;;;;;;;;;;;;;;;;;;;;;;;;;;;;;;;;;;;
"181213";;;"Windows 7";"Rachels Experiment";"1.0";"1";"1";"1";"1";"1";"1";"2013-12-18 12:17:16.635";"";"0";"1";"1";"1";"1";"65";"64";"module.training_block2.exec-1797.GoNoGo2";;;;;;;;;;;;"1250";"2013-12-18 12:20:43.417";"35";"1";"FINISHED";"RIGHT";"failure";"464";"1";"2013-12-18 12:20:42.167";"3";;;;;;;;;;;;;;;;;;;;;;;;;;;;;;;;;;;;;;;;;;;;;;;;;;;;;;;;;;;;;;;;;;;;;;;;;;;;;;;;;;;;;;;
"181213";;;"Windows 7";"Rachels Experiment";"1.0";"1";"1";"1";"1";"1";"1";"2013-12-18 12:17:16.635";"";"0";"1";"1";"1";"1";"66";"65";"module.training_block2.exec-1797.GoNoGo2";;;;;;;;;;;;"1250";"2013-12-18 12:20:45.937";"24";"1";"FINISHED";"RIGHT";"success";"441";"0";"2013-12-18 12:20:44.687";"3";;;;;;;;;;;;;;;;;;;;;;;;;;;;;;;;;;;;;;;;;;;;;;;;;;;;;;;;;;;;;;;;;;;;;;;;;;;;;;;;;;;;;;;
"181213";;;"Windows 7";"Rachels Experiment";"1.0";"1";"1";"1";"1";"1";"1";"2013-12-18 12:17:16.635";"";"0";"1";"1";"1";"1";"67";"66";"module.training_block2.exec-1797.GoNoGo2";;;;;;;;;;;;"1249";"2013-12-18 12:20:48.458";"17";"1";"FINISHED";"RIGHT";"success";"559";"0";"2013-12-18 12:20:47.208";"2";;;;;;;;;;;;;;;;;;;;;;;;;;;;;;;;;;;;;;;;;;;;;;;;;;;;;;;;;;;;;;;;;;;;;;;;;;;;;;;;;;;;;;;
"181213";;;"Windows 7";"Rachels Experiment";"1.0";"1";"1";"1";"1";"1";"1";"2013-12-18 12:17:16.635";"";"0";"1";"1";"1";"1";"68";"67";"module.training_block2.exec-1797.GoNoGo2";;;;;;;;;;;;"1250";"2013-12-18 12:20:50.977";"34";"1";"FINISHED";"NONE";"success";"0";"1";"2013-12-18 12:20:49.727";"3";;;;;;;;;;;;;;;;;;;;;;;;;;;;;;;;;;;;;;;;;;;;;;;;;;;;;;;;;;;;;;;;;;;;;;;;;;;;;;;;;;;;;;;
"181213";;;"Windows 7";"Rachels Experiment";"1.0";"1";"1";"1";"1";"1";"1";"2013-12-18 12:17:16.635";"";"0";"1";"1";"1";"1";"69";"68";"module.training_block2.exec-1797.GoNoGo2";;;;;;;;;;;;"1249";"2013-12-18 12:20:53.498";"28";"1";"FINISHED";"NONE";"success";"0";"1";"2013-12-18 12:20:52.248";"3";;;;;;;;;;;;;;;;;;;;;;;;;;;;;;;;;;;;;;;;;;;;;;;;;;;;;;;;;;;;;;;;;;;;;;;;;;;;;;;;;;;;;;;
"181213";;;"Windows 7";"Rachels Experiment";"1.0";"1";"1";"1";"1";"1";"1";"2013-12-18 12:17:16.635";"";"0";"1";"1";"1";"1";"70";"69";"module.training_block2.exec-1797.GoNoGo2";;;;;;;;;;;;"1250";"2013-12-18 12:20:56.023";"12";"0";"FINISHED";"LEFT";"success";"419";"0";"2013-12-18 12:20:54.773";"2";;;;;;;;;;;;;;;;;;;;;;;;;;;;;;;;;;;;;;;;;;;;;;;;;;;;;;;;;;;;;;;;;;;;;;;;;;;;;;;;;;;;;;;
"181213";;;"Windows 7";"Rachels Experiment";"1.0";"1";"1";"1";"1";"1";"1";"2013-12-18 12:17:16.635";"";"0";"1";"1";"1";"1";"71";"70";"module.training_block2.exec-1797.GoNoGo2";;;;;;;;;;;;"1250";"2013-12-18 12:20:58.542";"5";"1";"FINISHED";"NONE";"success";"0";"1";"2013-12-18 12:20:57.292";"1";;;;;;;;;;;;;;;;;;;;;;;;;;;;;;;;;;;;;;;;;;;;;;;;;;;;;;;;;;;;;;;;;;;;;;;;;;;;;;;;;;;;;;;
"181213";;;"Windows 7";"Rachels Experiment";"1.0";"1";"1";"1";"1";"1";"1";"2013-12-18 12:17:16.635";"";"0";"1";"1";"1";"1";"72";"71";"module.training_block2.exec-1797.GoNoGo2";;;;;;;;;;;;"1250";"2013-12-18 12:21:01.062";"31";"0";"FINISHED";"NONE";"success";"0";"1";"2013-12-18 12:20:59.812";"3";;;;;;;;;;;;;;;;;;;;;;;;;;;;;;;;;;;;;;;;;;;;;;;;;;;;;;;;;;;;;;;;;;;;;;;;;;;;;;;;;;;;;;;
"181213";;;"Windows 7";"Rachels Experiment";"1.0";"1";"1";"1";"1";"1";"1";"2013-12-18 12:17:16.635";"";"0";"1";"1";"1";"1";"73";"72";"module.training_block2.exec-1797.GoNoGo2";;;;;;;;;;;;"1250";"2013-12-18 12:21:03.582";"0";"1";"FINISHED";"NONE";"success";"0";"1";"2013-12-18 12:21:02.332";"1";;;;;;;;;;;;;;;;;;;;;;;;;;;;;;;;;;;;;;;;;;;;;;;;;;;;;;;;;;;;;;;;;;;;;;;;;;;;;;;;;;;;;;;
"181213";;;"Windows 7";"Rachels Experiment";"1.0";"1";"1";"1";"1";"1";"1";"2013-12-18 12:17:16.635";"";"0";"1";"1";"1";"1";"74";"73";"module.training_block2.exec-1797.GoNoGo2";;;;;;;;;;;;"1249";"2013-12-18 12:21:06.101";"15";"0";"FINISHED";"LEFT";"success";"380";"0";"2013-12-18 12:21:04.851";"2";;;;;;;;;;;;;;;;;;;;;;;;;;;;;;;;;;;;;;;;;;;;;;;;;;;;;;;;;;;;;;;;;;;;;;;;;;;;;;;;;;;;;;;
"181213";;;"Windows 7";"Rachels Experiment";"1.0";"1";"1";"1";"1";"1";"1";"2013-12-18 12:17:16.635";"";"0";"1";"1";"1";"1";"75";"74";"module.training_block2.exec-1797.GoNoGo2";;;;;;;;;;;;"1250";"2013-12-18 12:21:08.620";"14";"1";"FINISHED";"RIGHT";"success";"502";"0";"2013-12-18 12:21:07.370";"2";;;;;;;;;;;;;;;;;;;;;;;;;;;;;;;;;;;;;;;;;;;;;;;;;;;;;;;;;;;;;;;;;;;;;;;;;;;;;;;;;;;;;;;
"181213";;;"Windows 7";"Rachels Experiment";"1.0";"1";"1";"1";"1";"1";"1";"2013-12-18 12:17:16.635";"";"0";"1";"1";"1";"1";"76";"75";"module.training_block2.exec-1797.GoNoGo2";;;;;;;;;;;;"1250";"2013-12-18 12:21:11.138";"26";"1";"FINISHED";"RIGHT";"success";"695";"0";"2013-12-18 12:21:09.888";"3";;;;;;;;;;;;;;;;;;;;;;;;;;;;;;;;;;;;;;;;;;;;;;;;;;;;;;;;;;;;;;;;;;;;;;;;;;;;;;;;;;;;;;;
"181213";;;"Windows 7";"Rachels Experiment";"1.0";"1";"1";"1";"1";"1";"1";"2013-12-18 12:17:16.635";"";"0";"1";"1";"1";"1";"77";"76";"module.training_block2.exec-1797.GoNoGo2";;;;;;;;;;;;"1249";"2013-12-18 12:21:13.656";"8";"0";"FINISHED";"NONE";"success";"0";"1";"2013-12-18 12:21:12.406";"1";;;;;;;;;;;;;;;;;;;;;;;;;;;;;;;;;;;;;;;;;;;;;;;;;;;;;;;;;;;;;;;;;;;;;;;;;;;;;;;;;;;;;;;
"181213";;;"Windows 7";"Rachels Experiment";"1.0";"1";"1";"1";"1";"1";"1";"2013-12-18 12:17:16.635";"";"0";"1";"1";"1";"1";"78";"77";"module.training_block2.exec-1797.GoNoGo2";;;;;;;;;;;;"1250";"2013-12-18 12:21:16.175";"33";"1";"FINISHED";"NONE";"success";"0";"1";"2013-12-18 12:21:14.925";"3";;;;;;;;;;;;;;;;;;;;;;;;;;;;;;;;;;;;;;;;;;;;;;;;;;;;;;;;;;;;;;;;;;;;;;;;;;;;;;;;;;;;;;;
"181213";;;"Windows 7";"Rachels Experiment";"1.0";"1";"1";"1";"1";"1";"1";"2013-12-18 12:17:16.635";"";"0";"1";"1";"1";"1";"79";"78";"module.training_block2.exec-1797.GoNoGo2";;;;;;;;;;;;"1249";"2013-12-18 12:21:18.694";"7";"0";"FINISHED";"NONE";"success";"0";"1";"2013-12-18 12:21:17.444";"1";;;;;;;;;;;;;;;;;;;;;;;;;;;;;;;;;;;;;;;;;;;;;;;;;;;;;;;;;;;;;;;;;;;;;;;;;;;;;;;;;;;;;;;
"181213";;;"Windows 7";"Rachels Experiment";"1.0";"1";"1";"1";"1";"1";"1";"2013-12-18 12:17:16.635";"";"0";"1";"1";"1";"1";"80";"79";"module.training_block2.exec-1797.GoNoGo2";;;;;;;;;;;;"1250";"2013-12-18 12:21:21.212";"3";"1";"FINISHED";"RIGHT";"failure";"333";"1";"2013-12-18 12:21:19.962";"1";;;;;;;;;;;;;;;;;;;;;;;;;;;;;;;;;;;;;;;;;;;;;;;;;;;;;;;;;;;;;;;;;;;;;;;;;;;;;;;;;;;;;;;
"181213";;;"Windows 7";"Rachels Experiment";"1.0";"1";"1";"1";"1";"1";"1";"2013-12-18 12:17:16.635";"";"0";"1";"1";"1";"1";"81";"80";"module.training_block2.exec-1797.GoNoGo2";;;;;;;;;;;;"1250";"2013-12-18 12:21:23.731";"10";"1";"FINISHED";"RIGHT";"success";"495";"0";"2013-12-18 12:21:22.481";"2";;;;;;;;;;;;;;;;;;;;;;;;;;;;;;;;;;;;;;;;;;;;;;;;;;;;;;;;;;;;;;;;;;;;;;;;;;;;;;;;;;;;;;;
"181213";;;"Windows 7";"Rachels Experiment";"1.0";"1";"1";"1";"1";"1";"1";"2013-12-18 12:17:16.635";"";"0";"1";"1";"1";"1";"82";"81";"module.training_block2.exec-1797.GoNoGo2";;;;;;;;;;;;"1250";"2013-12-18 12:21:26.250";"30";"0";"FINISHED";"NONE";"success";"0";"1";"2013-12-18 12:21:25.000";"3";;;;;;;;;;;;;;;;;;;;;;;;;;;;;;;;;;;;;;;;;;;;;;;;;;;;;;;;;;;;;;;;;;;;;;;;;;;;;;;;;;;;;;;
"181213";;;"Windows 7";"Rachels Experiment";"1.0";"1";"1";"1";"1";"1";"1";"2013-12-18 12:17:16.635";"";"0";"1";"1";"1";"1";"83";"82";"module.training_block2.exec-1797.GoNoGo2";;;;;;;;;;;;"1250";"2013-12-18 12:21:28.768";"19";"1";"FINISHED";"RIGHT";"success";"522";"0";"2013-12-18 12:21:27.518";"3";;;;;;;;;;;;;;;;;;;;;;;;;;;;;;;;;;;;;;;;;;;;;;;;;;;;;;;;;;;;;;;;;;;;;;;;;;;;;;;;;;;;;;;
"181213";;;"Windows 7";"Rachels Experiment";"1.0";"1";"1";"1";"1";"1";"1";"2013-12-18 12:17:16.635";"";"0";"1";"1";"1";"1";"84";"83";"module.training_block2.exec-1797.GoNoGo2";;;;;;;;;;;;"1249";"2013-12-18 12:21:31.286";"13";"1";"FINISHED";"RIGHT";"success";"795";"0";"2013-12-18 12:21:30.036";"2";;;;;;;;;;;;;;;;;;;;;;;;;;;;;;;;;;;;;;;;;;;;;;;;;;;;;;;;;;;;;;;;;;;;;;;;;;;;;;;;;;;;;;;
"181213";;;"Windows 7";"Rachels Experiment";"1.0";"1";"1";"1";"1";"1";"1";"2013-12-18 12:17:16.635";"";"0";"1";"1";"1";"1";"85";"84";"module.training_block2.exec-1797.GoNoGo2";;;;;;;;;;;;"1250";"2013-12-18 12:21:33.805";"4";"0";"FINISHED";"NONE";"success";"0";"1";"2013-12-18 12:21:32.555";"1";;;;;;;;;;;;;;;;;;;;;;;;;;;;;;;;;;;;;;;;;;;;;;;;;;;;;;;;;;;;;;;;;;;;;;;;;;;;;;;;;;;;;;;
"181213";;;"Windows 7";"Rachels Experiment";"1.0";"1";"1";"1";"1";"1";"1";"2013-12-18 12:17:16.635";"";"0";"1";"1";"1";"1";"86";"85";"module.training_block2.exec-1797.GoNoGo2";;;;;;;;;;;;"1249";"2013-12-18 12:21:36.323";"32";"0";"FINISHED";"LEFT";"success";"638";"0";"2013-12-18 12:21:35.073";"3";;;;;;;;;;;;;;;;;;;;;;;;;;;;;;;;;;;;;;;;;;;;;;;;;;;;;;;;;;;;;;;;;;;;;;;;;;;;;;;;;;;;;;;
"181213";;;"Windows 7";"Rachels Experiment";"1.0";"1";"1";"1";"1";"1";"1";"2013-12-18 12:17:16.635";"";"0";"1";"1";"1";"1";"87";"86";"module.training_block2.exec-1797.GoNoGo2";;;;;;;;;;;;"1250";"2013-12-18 12:21:38.841";"21";"1";"FINISHED";"RIGHT";"success";"480";"0";"2013-12-18 12:21:37.591";"3";;;;;;;;;;;;;;;;;;;;;;;;;;;;;;;;;;;;;;;;;;;;;;;;;;;;;;;;;;;;;;;;;;;;;;;;;;;;;;;;;;;;;;;
"181213";;;"Windows 7";"Rachels Experiment";"1.0";"1";"1";"1";"1";"1";"1";"2013-12-18 12:17:16.635";"";"0";"1";"1";"1";"1";"88";"87";"module.training_block3.exec-8371.GoNoGo3";;;;;;;;;;;;;;;;;;;;;;;"1250";"2013-12-18 12:21:54.471";"13";"1";"FINISHED";"RIGHT";"success";"362";"0";"2013-12-18 12:21:53.221";"2";;;;;;;;;;;;;;;;;;;;;;;;;;;;;;;;;;;;;;;;;;;;;;;;;;;;;;;;;;;;;;;;;;;;;;;;;;;;
"181213";;;"Windows 7";"Rachels Experiment";"1.0";"1";"1";"1";"1";"1";"1";"2013-12-18 12:17:16.635";"";"0";"1";"1";"1";"1";"89";"88";"module.training_block3.exec-8371.GoNoGo3";;;;;;;;;;;;;;;;;;;;;;;"1249";"2013-12-18 12:21:56.989";"1";"1";"FINISHED";"RIGHT";"success";"372";"0";"2013-12-18 12:21:55.739";"1";;;;;;;;;;;;;;;;;;;;;;;;;;;;;;;;;;;;;;;;;;;;;;;;;;;;;;;;;;;;;;;;;;;;;;;;;;;;
"181213";;;"Windows 7";"Rachels Experiment";"1.0";"1";"1";"1";"1";"1";"1";"2013-12-18 12:17:16.635";"";"0";"1";"1";"1";"1";"90";"89";"module.training_block3.exec-8371.GoNoGo3";;;;;;;;;;;;;;;;;;;;;;;"1250";"2013-12-18 12:21:59.506";"7";"0";"FINISHED";"LEFT";"failure";"711";"1";"2013-12-18 12:21:58.256";"1";;;;;;;;;;;;;;;;;;;;;;;;;;;;;;;;;;;;;;;;;;;;;;;;;;;;;;;;;;;;;;;;;;;;;;;;;;;;
"181213";;;"Windows 7";"Rachels Experiment";"1.0";"1";"1";"1";"1";"1";"1";"2013-12-18 12:17:16.635";"";"0";"1";"1";"1";"1";"91";"90";"module.training_block3.exec-8371.GoNoGo3";;;;;;;;;;;;;;;;;;;;;;;"1249";"2013-12-18 12:22:02.023";"11";"1";"FINISHED";"RIGHT";"success";"530";"0";"2013-12-18 12:22:00.773";"2";;;;;;;;;;;;;;;;;;;;;;;;;;;;;;;;;;;;;;;;;;;;;;;;;;;;;;;;;;;;;;;;;;;;;;;;;;;;
"181213";;;"Windows 7";"Rachels Experiment";"1.0";"1";"1";"1";"1";"1";"1";"2013-12-18 12:17:16.635";"";"0";"1";"1";"1";"1";"92";"91";"module.training_block3.exec-8371.GoNoGo3";;;;;;;;;;;;;;;;;;;;;;;"1249";"2013-12-18 12:22:04.541";"17";"0";"FINISHED";"LEFT";"success";"428";"0";"2013-12-18 12:22:03.291";"2";;;;;;;;;;;;;;;;;;;;;;;;;;;;;;;;;;;;;;;;;;;;;;;;;;;;;;;;;;;;;;;;;;;;;;;;;;;;
"181213";;;"Windows 7";"Rachels Experiment";"1.0";"1";"1";"1";"1";"1";"1";"2013-12-18 12:17:16.635";"";"0";"1";"1";"1";"1";"93";"92";"module.training_block3.exec-8371.GoNoGo3";;;;;;;;;;;;;;;;;;;;;;;"1250";"2013-12-18 12:22:07.059";"29";"1";"FINISHED";"RIGHT";"failure";"390";"1";"2013-12-18 12:22:05.809";"3";;;;;;;;;;;;;;;;;;;;;;;;;;;;;;;;;;;;;;;;;;;;;;;;;;;;;;;;;;;;;;;;;;;;;;;;;;;;
"181213";;;"Windows 7";"Rachels Experiment";"1.0";"1";"1";"1";"1";"1";"1";"2013-12-18 12:17:16.635";"";"0";"1";"1";"1";"1";"94";"93";"module.training_block3.exec-8371.GoNoGo3";;;;;;;;;;;;;;;;;;;;;;;"1250";"2013-12-18 12:22:09.578";"18";"0";"FINISHED";"NONE";"success";"0";"1";"2013-12-18 12:22:08.327";"3";;;;;;;;;;;;;;;;;;;;;;;;;;;;;;;;;;;;;;;;;;;;;;;;;;;;;;;;;;;;;;;;;;;;;;;;;;;;
"181213";;;"Windows 7";"Rachels Experiment";"1.0";"1";"1";"1";"1";"1";"1";"2013-12-18 12:17:16.635";"";"0";"1";"1";"1";"1";"95";"94";"module.training_block3.exec-8371.GoNoGo3";;;;;;;;;;;;;;;;;;;;;;;"1249";"2013-12-18 12:22:12.094";"14";"1";"FINISHED";"RIGHT";"success";"458";"0";"2013-12-18 12:22:10.844";"2";;;;;;;;;;;;;;;;;;;;;;;;;;;;;;;;;;;;;;;;;;;;;;;;;;;;;;;;;;;;;;;;;;;;;;;;;;;;
"181213";;;"Windows 7";"Rachels Experiment";"1.0";"1";"1";"1";"1";"1";"1";"2013-12-18 12:17:16.635";"";"0";"1";"1";"1";"1";"96";"95";"module.training_block3.exec-8371.GoNoGo3";;;;;;;;;;;;;;;;;;;;;;;"1250";"2013-12-18 12:22:14.612";"24";"0";"FINISHED";"NONE";"success";"0";"1";"2013-12-18 12:22:13.361";"3";;;;;;;;;;;;;;;;;;;;;;;;;;;;;;;;;;;;;;;;;;;;;;;;;;;;;;;;;;;;;;;;;;;;;;;;;;;;
"181213";;;"Windows 7";"Rachels Experiment";"1.0";"1";"1";"1";"1";"1";"1";"2013-12-18 12:17:16.635";"";"0";"1";"1";"1";"1";"97";"96";"module.training_block3.exec-8371.GoNoGo3";;;;;;;;;;;;;;;;;;;;;;;"1250";"2013-12-18 12:22:17.134";"34";"0";"FINISHED";"LEFT";"success";"387";"0";"2013-12-18 12:22:15.884";"3";;;;;;;;;;;;;;;;;;;;;;;;;;;;;;;;;;;;;;;;;;;;;;;;;;;;;;;;;;;;;;;;;;;;;;;;;;;;
"181213";;;"Windows 7";"Rachels Experiment";"1.0";"1";"1";"1";"1";"1";"1";"2013-12-18 12:17:16.635";"";"0";"1";"1";"1";"1";"98";"97";"module.training_block3.exec-8371.GoNoGo3";;;;;;;;;;;;;;;;;;;;;;;"1250";"2013-12-18 12:22:19.652";"27";"1";"FINISHED";"RIGHT";"success";"358";"0";"2013-12-18 12:22:18.402";"3";;;;;;;;;;;;;;;;;;;;;;;;;;;;;;;;;;;;;;;;;;;;;;;;;;;;;;;;;;;;;;;;;;;;;;;;;;;;
"181213";;;"Windows 7";"Rachels Experiment";"1.0";"1";"1";"1";"1";"1";"1";"2013-12-18 12:17:16.635";"";"0";"1";"1";"1";"1";"99";"98";"module.training_block3.exec-8371.GoNoGo3";;;;;;;;;;;;;;;;;;;;;;;"1249";"2013-12-18 12:22:22.168";"19";"1";"FINISHED";"NONE";"success";"0";"1";"2013-12-18 12:22:20.918";"3";;;;;;;;;;;;;;;;;;;;;;;;;;;;;;;;;;;;;;;;;;;;;;;;;;;;;;;;;;;;;;;;;;;;;;;;;;;;
"181213";;;"Windows 7";"Rachels Experiment";"1.0";"1";"1";"1";"1";"1";"1";"2013-12-18 12:17:16.635";"";"0";"1";"1";"1";"1";"100";"99";"module.training_block3.exec-8371.GoNoGo3";;;;;;;;;;;;;;;;;;;;;;;"1250";"2013-12-18 12:22:24.687";"2";"0";"FINISHED";"NONE";"success";"0";"1";"2013-12-18 12:22:23.436";"1";;;;;;;;;;;;;;;;;;;;;;;;;;;;;;;;;;;;;;;;;;;;;;;;;;;;;;;;;;;;;;;;;;;;;;;;;;;;
"181213";;;"Windows 7";"Rachels Experiment";"1.0";"1";"1";"1";"1";"1";"1";"2013-12-18 12:17:16.635";"";"0";"1";"1";"1";"1";"101";"100";"module.training_block3.exec-8371.GoNoGo3";;;;;;;;;;;;;;;;;;;;;;;"1249";"2013-12-18 12:22:27.204";"10";"1";"FINISHED";"RIGHT";"success";"381";"0";"2013-12-18 12:22:25.954";"2";;;;;;;;;;;;;;;;;;;;;;;;;;;;;;;;;;;;;;;;;;;;;;;;;;;;;;;;;;;;;;;;;;;;;;;;;;;;
"181213";;;"Windows 7";"Rachels Experiment";"1.0";"1";"1";"1";"1";"1";"1";"2013-12-18 12:17:16.635";"";"0";"1";"1";"1";"1";"102";"101";"module.training_block3.exec-8371.GoNoGo3";;;;;;;;;;;;;;;;;;;;;;;"1249";"2013-12-18 12:22:29.720";"9";"1";"FINISHED";"RIGHT";"success";"440";"0";"2013-12-18 12:22:28.470";"2";;;;;;;;;;;;;;;;;;;;;;;;;;;;;;;;;;;;;;;;;;;;;;;;;;;;;;;;;;;;;;;;;;;;;;;;;;;;
"181213";;;"Windows 7";"Rachels Experiment";"1.0";"1";"1";"1";"1";"1";"1";"2013-12-18 12:17:16.635";"";"0";"1";"1";"1";"1";"103";"102";"module.training_block3.exec-8371.GoNoGo3";;;;;;;;;;;;;;;;;;;;;;;"1250";"2013-12-18 12:22:32.238";"25";"0";"FINISHED";"LEFT";"success";"428";"0";"2013-12-18 12:22:30.987";"3";;;;;;;;;;;;;;;;;;;;;;;;;;;;;;;;;;;;;;;;;;;;;;;;;;;;;;;;;;;;;;;;;;;;;;;;;;;;
"181213";;;"Windows 7";"Rachels Experiment";"1.0";"1";"1";"1";"1";"1";"1";"2013-12-18 12:17:16.635";"";"0";"1";"1";"1";"1";"104";"103";"module.training_block3.exec-8371.GoNoGo3";;;;;;;;;;;;;;;;;;;;;;;"1249";"2013-12-18 12:22:34.760";"35";"1";"FINISHED";"RIGHT";"success";"433";"0";"2013-12-18 12:22:33.510";"3";;;;;;;;;;;;;;;;;;;;;;;;;;;;;;;;;;;;;;;;;;;;;;;;;;;;;;;;;;;;;;;;;;;;;;;;;;;;
"181213";;;"Windows 7";"Rachels Experiment";"1.0";"1";"1";"1";"1";"1";"1";"2013-12-18 12:17:16.635";"";"0";"1";"1";"1";"1";"105";"104";"module.training_block3.exec-8371.GoNoGo3";;;;;;;;;;;;;;;;;;;;;;;"1249";"2013-12-18 12:22:37.277";"16";"0";"FINISHED";"LEFT";"success";"500";"0";"2013-12-18 12:22:36.027";"2";;;;;;;;;;;;;;;;;;;;;;;;;;;;;;;;;;;;;;;;;;;;;;;;;;;;;;;;;;;;;;;;;;;;;;;;;;;;
"181213";;;"Windows 7";"Rachels Experiment";"1.0";"1";"1";"1";"1";"1";"1";"2013-12-18 12:17:16.635";"";"0";"1";"1";"1";"1";"106";"105";"module.training_block3.exec-8371.GoNoGo3";;;;;;;;;;;;;;;;;;;;;;;"1249";"2013-12-18 12:22:39.793";"4";"1";"FINISHED";"NONE";"success";"0";"1";"2013-12-18 12:22:38.543";"1";;;;;;;;;;;;;;;;;;;;;;;;;;;;;;;;;;;;;;;;;;;;;;;;;;;;;;;;;;;;;;;;;;;;;;;;;;;;
"181213";;;"Windows 7";"Rachels Experiment";"1.0";"1";"1";"1";"1";"1";"1";"2013-12-18 12:17:16.635";"";"0";"1";"1";"1";"1";"107";"106";"module.training_block3.exec-8371.GoNoGo3";;;;;;;;;;;;;;;;;;;;;;;"1249";"2013-12-18 12:22:42.309";"33";"1";"FINISHED";"NONE";"success";"0";"1";"2013-12-18 12:22:41.059";"3";;;;;;;;;;;;;;;;;;;;;;;;;;;;;;;;;;;;;;;;;;;;;;;;;;;;;;;;;;;;;;;;;;;;;;;;;;;;
"181213";;;"Windows 7";"Rachels Experiment";"1.0";"1";"1";"1";"1";"1";"1";"2013-12-18 12:17:16.635";"";"0";"1";"1";"1";"1";"108";"107";"module.training_block3.exec-8371.GoNoGo3";;;;;;;;;;;;;;;;;;;;;;;"1250";"2013-12-18 12:22:44.826";"28";"1";"FINISHED";"LEFT";"failure";"16";"0";"2013-12-18 12:22:43.575";"3";;;;;;;;;;;;;;;;;;;;;;;;;;;;;;;;;;;;;;;;;;;;;;;;;;;;;;;;;;;;;;;;;;;;;;;;;;;;
"181213";;;"Windows 7";"Rachels Experiment";"1.0";"1";"1";"1";"1";"1";"1";"2013-12-18 12:17:16.635";"";"0";"1";"1";"1";"1";"109";"108";"module.training_block3.exec-8371.GoNoGo3";;;;;;;;;;;;;;;;;;;;;;;"1249";"2013-12-18 12:22:47.342";"23";"0";"FINISHED";"LEFT";"failure";"378";"1";"2013-12-18 12:22:46.092";"3";;;;;;;;;;;;;;;;;;;;;;;;;;;;;;;;;;;;;;;;;;;;;;;;;;;;;;;;;;;;;;;;;;;;;;;;;;;;
"181213";;;"Windows 7";"Rachels Experiment";"1.0";"1";"1";"1";"1";"1";"1";"2013-12-18 12:17:16.635";"";"0";"1";"1";"1";"1";"110";"109";"module.training_block3.exec-8371.GoNoGo3";;;;;;;;;;;;;;;;;;;;;;;"1249";"2013-12-18 12:22:49.858";"8";"0";"FINISHED";"NONE";"success";"0";"1";"2013-12-18 12:22:48.608";"1";;;;;;;;;;;;;;;;;;;;;;;;;;;;;;;;;;;;;;;;;;;;;;;;;;;;;;;;;;;;;;;;;;;;;;;;;;;;
"181213";;;"Windows 7";"Rachels Experiment";"1.0";"1";"1";"1";"1";"1";"1";"2013-12-18 12:17:16.635";"";"0";"1";"1";"1";"1";"111";"110";"module.training_block3.exec-8371.GoNoGo3";;;;;;;;;;;;;;;;;;;;;;;"1250";"2013-12-18 12:22:52.375";"30";"1";"FINISHED";"NONE";"success";"0";"1";"2013-12-18 12:22:51.125";"3";;;;;;;;;;;;;;;;;;;;;;;;;;;;;;;;;;;;;;;;;;;;;;;;;;;;;;;;;;;;;;;;;;;;;;;;;;;;
"181213";;;"Windows 7";"Rachels Experiment";"1.0";"1";"1";"1";"1";"1";"1";"2013-12-18 12:17:16.635";"";"0";"1";"1";"1";"1";"112";"111";"module.training_block3.exec-8371.GoNoGo3";;;;;;;;;;;;;;;;;;;;;;;"1250";"2013-12-18 12:22:54.892";"6";"1";"FINISHED";"RIGHT";"failure";"333";"1";"2013-12-18 12:22:53.642";"1";;;;;;;;;;;;;;;;;;;;;;;;;;;;;;;;;;;;;;;;;;;;;;;;;;;;;;;;;;;;;;;;;;;;;;;;;;;;
"181213";;;"Windows 7";"Rachels Experiment";"1.0";"1";"1";"1";"1";"1";"1";"2013-12-18 12:17:16.635";"";"0";"1";"1";"1";"1";"113";"112";"module.training_block3.exec-8371.GoNoGo3";;;;;;;;;;;;;;;;;;;;;;;"1249";"2013-12-18 12:22:57.409";"15";"0";"FINISHED";"LEFT";"success";"424";"0";"2013-12-18 12:22:56.159";"2";;;;;;;;;;;;;;;;;;;;;;;;;;;;;;;;;;;;;;;;;;;;;;;;;;;;;;;;;;;;;;;;;;;;;;;;;;;;
"181213";;;"Windows 7";"Rachels Experiment";"1.0";"1";"1";"1";"1";"1";"1";"2013-12-18 12:17:16.635";"";"0";"1";"1";"1";"1";"114";"113";"module.training_block3.exec-8371.GoNoGo3";;;;;;;;;;;;;;;;;;;;;;;"1249";"2013-12-18 12:22:59.924";"20";"1";"FINISHED";"RIGHT";"success";"468";"0";"2013-12-18 12:22:58.674";"3";;;;;;;;;;;;;;;;;;;;;;;;;;;;;;;;;;;;;;;;;;;;;;;;;;;;;;;;;;;;;;;;;;;;;;;;;;;;
"181213";;;"Windows 7";"Rachels Experiment";"1.0";"1";"1";"1";"1";"1";"1";"2013-12-18 12:17:16.635";"";"0";"1";"1";"1";"1";"115";"114";"module.training_block3.exec-8371.GoNoGo3";;;;;;;;;;;;;;;;;;;;;;;"1250";"2013-12-18 12:23:02.441";"31";"1";"FINISHED";"RIGHT";"failure";"472";"1";"2013-12-18 12:23:01.190";"3";;;;;;;;;;;;;;;;;;;;;;;;;;;;;;;;;;;;;;;;;;;;;;;;;;;;;;;;;;;;;;;;;;;;;;;;;;;;
"181213";;;"Windows 7";"Rachels Experiment";"1.0";"1";"1";"1";"1";"1";"1";"2013-12-18 12:17:16.635";"";"0";"1";"1";"1";"1";"116";"115";"module.training_block3.exec-8371.GoNoGo3";;;;;;;;;;;;;;;;;;;;;;;"1249";"2013-12-18 12:23:04.957";"12";"0";"FINISHED";"NONE";"success";"0";"1";"2013-12-18 12:23:03.707";"2";;;;;;;;;;;;;;;;;;;;;;;;;;;;;;;;;;;;;;;;;;;;;;;;;;;;;;;;;;;;;;;;;;;;;;;;;;;;
"181213";;;"Windows 7";"Rachels Experiment";"1.0";"1";"1";"1";"1";"1";"1";"2013-12-18 12:17:16.635";"";"0";"1";"1";"1";"1";"117";"116";"module.training_block3.exec-8371.GoNoGo3";;;;;;;;;;;;;;;;;;;;;;;"1249";"2013-12-18 12:23:07.471";"21";"0";"FINISHED";"LEFT";"failure";"545";"1";"2013-12-18 12:23:06.221";"3";;;;;;;;;;;;;;;;;;;;;;;;;;;;;;;;;;;;;;;;;;;;;;;;;;;;;;;;;;;;;;;;;;;;;;;;;;;;
"181213";;;"Windows 7";"Rachels Experiment";"1.0";"1";"1";"1";"1";"1";"1";"2013-12-18 12:17:16.635";"";"0";"1";"1";"1";"1";"118";"117";"module.training_block3.exec-8371.GoNoGo3";;;;;;;;;;;;;;;;;;;;;;;"1249";"2013-12-18 12:23:09.987";"3";"0";"FINISHED";"NONE";"success";"0";"1";"2013-12-18 12:23:08.737";"1";;;;;;;;;;;;;;;;;;;;;;;;;;;;;;;;;;;;;;;;;;;;;;;;;;;;;;;;;;;;;;;;;;;;;;;;;;;;
"181213";;;"Windows 7";"Rachels Experiment";"1.0";"1";"1";"1";"1";"1";"1";"2013-12-18 12:17:16.635";"";"0";"1";"1";"1";"1";"119";"118";"module.training_block3.exec-8371.GoNoGo3";;;;;;;;;;;;;;;;;;;;;;;"1249";"2013-12-18 12:23:12.502";"5";"1";"FINISHED";"NONE";"success";"0";"1";"2013-12-18 12:23:11.252";"1";;;;;;;;;;;;;;;;;;;;;;;;;;;;;;;;;;;;;;;;;;;;;;;;;;;;;;;;;;;;;;;;;;;;;;;;;;;;
"181213";;;"Windows 7";"Rachels Experiment";"1.0";"1";"1";"1";"1";"1";"1";"2013-12-18 12:17:16.635";"";"0";"1";"1";"1";"1";"120";"119";"module.training_block3.exec-8371.GoNoGo3";;;;;;;;;;;;;;;;;;;;;;;"1249";"2013-12-18 12:23:15.019";"26";"0";"FINISHED";"LEFT";"success";"677";"0";"2013-12-18 12:23:13.769";"3";;;;;;;;;;;;;;;;;;;;;;;;;;;;;;;;;;;;;;;;;;;;;;;;;;;;;;;;;;;;;;;;;;;;;;;;;;;;
"181213";;;"Windows 7";"Rachels Experiment";"1.0";"1";"1";"1";"1";"1";"1";"2013-12-18 12:17:16.635";"";"0";"1";"1";"1";"1";"121";"120";"module.training_block3.exec-8371.GoNoGo3";;;;;;;;;;;;;;;;;;;;;;;"1249";"2013-12-18 12:23:17.535";"32";"1";"FINISHED";"RIGHT";"success";"482";"0";"2013-12-18 12:23:16.285";"3";;;;;;;;;;;;;;;;;;;;;;;;;;;;;;;;;;;;;;;;;;;;;;;;;;;;;;;;;;;;;;;;;;;;;;;;;;;;
"181213";;;"Windows 7";"Rachels Experiment";"1.0";"1";"1";"1";"1";"1";"1";"2013-12-18 12:17:16.635";"";"0";"1";"1";"1";"1";"122";"121";"module.training_block3.exec-8371.GoNoGo3";;;;;;;;;;;;;;;;;;;;;;;"1249";"2013-12-18 12:23:20.050";"0";"0";"FINISHED";"LEFT";"failure";"366";"1";"2013-12-18 12:23:18.800";"1";;;;;;;;;;;;;;;;;;;;;;;;;;;;;;;;;;;;;;;;;;;;;;;;;;;;;;;;;;;;;;;;;;;;;;;;;;;;
"181213";;;"Windows 7";"Rachels Experiment";"1.0";"1";"1";"1";"1";"1";"1";"2013-12-18 12:17:16.635";"";"0";"1";"1";"1";"1";"123";"122";"module.training_block3.exec-8371.GoNoGo3";;;;;;;;;;;;;;;;;;;;;;;"1250";"2013-12-18 12:23:22.568";"22";"1";"FINISHED";"RIGHT";"success";"369";"0";"2013-12-18 12:23:21.317";"3";;;;;;;;;;;;;;;;;;;;;;;;;;;;;;;;;;;;;;;;;;;;;;;;;;;;;;;;;;;;;;;;;;;;;;;;;;;;
"181213";;;"Windows 7";"Rachels Experiment";"1.0";"1";"1";"1";"1";"1";"1";"2013-12-18 12:17:16.635";"";"0";"1";"1";"1";"1";"124";"123";"module.training_block4.exec-9661.GoNoGo4";;;;;;;;;;;;;;;;;;;;;;;;;;;;;;;;;;"1250";"2013-12-18 12:23:38.295";"26";"1";"FINISHED";"RIGHT";"success";"434";"0";"2013-12-18 12:23:37.045";"3";;;;;;;;;;;;;;;;;;;;;;;;;;;;;;;;;;;;;;;;;;;;;;;;;;;;;;;;;;;;;;;;;
"181213";;;"Windows 7";"Rachels Experiment";"1.0";"1";"1";"1";"1";"1";"1";"2013-12-18 12:17:16.635";"";"0";"1";"1";"1";"1";"125";"124";"module.training_block4.exec-9661.GoNoGo4";;;;;;;;;;;;;;;;;;;;;;;;;;;;;;;;;;"1249";"2013-12-18 12:23:40.811";"29";"0";"FINISHED";"LEFT";"failure";"381";"1";"2013-12-18 12:23:39.561";"3";;;;;;;;;;;;;;;;;;;;;;;;;;;;;;;;;;;;;;;;;;;;;;;;;;;;;;;;;;;;;;;;;
"181213";;;"Windows 7";"Rachels Experiment";"1.0";"1";"1";"1";"1";"1";"1";"2013-12-18 12:17:16.635";"";"0";"1";"1";"1";"1";"126";"125";"module.training_block4.exec-9661.GoNoGo4";;;;;;;;;;;;;;;;;;;;;;;;;;;;;;;;;;"1249";"2013-12-18 12:23:43.327";"12";"0";"FINISHED";"LEFT";"success";"418";"0";"2013-12-18 12:23:42.077";"2";;;;;;;;;;;;;;;;;;;;;;;;;;;;;;;;;;;;;;;;;;;;;;;;;;;;;;;;;;;;;;;;;
"181213";;;"Windows 7";"Rachels Experiment";"1.0";"1";"1";"1";"1";"1";"1";"2013-12-18 12:17:16.635";"";"0";"1";"1";"1";"1";"127";"126";"module.training_block4.exec-9661.GoNoGo4";;;;;;;;;;;;;;;;;;;;;;;;;;;;;;;;;;"1249";"2013-12-18 12:23:45.842";"0";"1";"FINISHED";"NONE";"success";"0";"1";"2013-12-18 12:23:44.592";"1";;;;;;;;;;;;;;;;;;;;;;;;;;;;;;;;;;;;;;;;;;;;;;;;;;;;;;;;;;;;;;;;;
"181213";;;"Windows 7";"Rachels Experiment";"1.0";"1";"1";"1";"1";"1";"1";"2013-12-18 12:17:16.635";"";"0";"1";"1";"1";"1";"128";"127";"module.training_block4.exec-9661.GoNoGo4";;;;;;;;;;;;;;;;;;;;;;;;;;;;;;;;;;"1249";"2013-12-18 12:23:48.358";"6";"1";"FINISHED";"NONE";"success";"0";"1";"2013-12-18 12:23:47.108";"1";;;;;;;;;;;;;;;;;;;;;;;;;;;;;;;;;;;;;;;;;;;;;;;;;;;;;;;;;;;;;;;;;
"181213";;;"Windows 7";"Rachels Experiment";"1.0";"1";"1";"1";"1";"1";"1";"2013-12-18 12:17:16.635";"";"0";"1";"1";"1";"1";"129";"128";"module.training_block4.exec-9661.GoNoGo4";;;;;;;;;;;;;;;;;;;;;;;;;;;;;;;;;;"1249";"2013-12-18 12:23:50.874";"24";"0";"FINISHED";"LEFT";"success";"751";"0";"2013-12-18 12:23:49.624";"3";;;;;;;;;;;;;;;;;;;;;;;;;;;;;;;;;;;;;;;;;;;;;;;;;;;;;;;;;;;;;;;;;
"181213";;;"Windows 7";"Rachels Experiment";"1.0";"1";"1";"1";"1";"1";"1";"2013-12-18 12:17:16.635";"";"0";"1";"1";"1";"1";"130";"129";"module.training_block4.exec-9661.GoNoGo4";;;;;;;;;;;;;;;;;;;;;;;;;;;;;;;;;;"1249";"2013-12-18 12:23:53.390";"34";"0";"FINISHED";"LEFT";"success";"554";"0";"2013-12-18 12:23:52.140";"3";;;;;;;;;;;;;;;;;;;;;;;;;;;;;;;;;;;;;;;;;;;;;;;;;;;;;;;;;;;;;;;;;
"181213";;;"Windows 7";"Rachels Experiment";"1.0";"1";"1";"1";"1";"1";"1";"2013-12-18 12:17:16.635";"";"0";"1";"1";"1";"1";"131";"130";"module.training_block4.exec-9661.GoNoGo4";;;;;;;;;;;;;;;;;;;;;;;;;;;;;;;;;;"1249";"2013-12-18 12:23:55.906";"7";"1";"FINISHED";"NONE";"success";"0";"1";"2013-12-18 12:23:54.656";"1";;;;;;;;;;;;;;;;;;;;;;;;;;;;;;;;;;;;;;;;;;;;;;;;;;;;;;;;;;;;;;;;;
"181213";;;"Windows 7";"Rachels Experiment";"1.0";"1";"1";"1";"1";"1";"1";"2013-12-18 12:17:16.635";"";"0";"1";"1";"1";"1";"132";"131";"module.training_block4.exec-9661.GoNoGo4";;;;;;;;;;;;;;;;;;;;;;;;;;;;;;;;;;"1249";"2013-12-18 12:23:58.421";"11";"0";"FINISHED";"LEFT";"success";"531";"0";"2013-12-18 12:23:57.171";"2";;;;;;;;;;;;;;;;;;;;;;;;;;;;;;;;;;;;;;;;;;;;;;;;;;;;;;;;;;;;;;;;;
"181213";;;"Windows 7";"Rachels Experiment";"1.0";"1";"1";"1";"1";"1";"1";"2013-12-18 12:17:16.635";"";"0";"1";"1";"1";"1";"133";"132";"module.training_block4.exec-9661.GoNoGo4";;;;;;;;;;;;;;;;;;;;;;;;;;;;;;;;;;"1249";"2013-12-18 12:24:00.938";"19";"1";"FINISHED";"RIGHT";"success";"590";"0";"2013-12-18 12:23:59.688";"3";;;;;;;;;;;;;;;;;;;;;;;;;;;;;;;;;;;;;;;;;;;;;;;;;;;;;;;;;;;;;;;;;
"181213";;;"Windows 7";"Rachels Experiment";"1.0";"1";"1";"1";"1";"1";"1";"2013-12-18 12:17:16.635";"";"0";"1";"1";"1";"1";"134";"133";"module.training_block4.exec-9661.GoNoGo4";;;;;;;;;;;;;;;;;;;;;;;;;;;;;;;;;;"1249";"2013-12-18 12:24:03.454";"32";"1";"FINISHED";"RIGHT";"success";"491";"0";"2013-12-18 12:24:02.204";"3";;;;;;;;;;;;;;;;;;;;;;;;;;;;;;;;;;;;;;;;;;;;;;;;;;;;;;;;;;;;;;;;;
"181213";;;"Windows 7";"Rachels Experiment";"1.0";"1";"1";"1";"1";"1";"1";"2013-12-18 12:17:16.635";"";"0";"1";"1";"1";"1";"135";"134";"module.training_block4.exec-9661.GoNoGo4";;;;;;;;;;;;;;;;;;;;;;;;;;;;;;;;;;"1249";"2013-12-18 12:24:05.969";"28";"1";"FINISHED";"NONE";"success";"0";"1";"2013-12-18 12:24:04.719";"3";;;;;;;;;;;;;;;;;;;;;;;;;;;;;;;;;;;;;;;;;;;;;;;;;;;;;;;;;;;;;;;;;
"181213";;;"Windows 7";"Rachels Experiment";"1.0";"1";"1";"1";"1";"1";"1";"2013-12-18 12:17:16.635";"";"0";"1";"1";"1";"1";"136";"135";"module.training_block4.exec-9661.GoNoGo4";;;;;;;;;;;;;;;;;;;;;;;;;;;;;;;;;;"1249";"2013-12-18 12:24:08.485";"27";"1";"FINISHED";"RIGHT";"success";"459";"0";"2013-12-18 12:24:07.235";"3";;;;;;;;;;;;;;;;;;;;;;;;;;;;;;;;;;;;;;;;;;;;;;;;;;;;;;;;;;;;;;;;;
"181213";;;"Windows 7";"Rachels Experiment";"1.0";"1";"1";"1";"1";"1";"1";"2013-12-18 12:17:16.635";"";"0";"1";"1";"1";"1";"137";"136";"module.training_block4.exec-9661.GoNoGo4";;;;;;;;;;;;;;;;;;;;;;;;;;;;;;;;;;"1250";"2013-12-18 12:24:11.001";"21";"0";"FINISHED";"NONE";"success";"0";"1";"2013-12-18 12:24:09.750";"3";;;;;;;;;;;;;;;;;;;;;;;;;;;;;;;;;;;;;;;;;;;;;;;;;;;;;;;;;;;;;;;;;
"181213";;;"Windows 7";"Rachels Experiment";"1.0";"1";"1";"1";"1";"1";"1";"2013-12-18 12:17:16.635";"";"0";"1";"1";"1";"1";"138";"137";"module.training_block4.exec-9661.GoNoGo4";;;;;;;;;;;;;;;;;;;;;;;;;;;;;;;;;;"1249";"2013-12-18 12:24:13.517";"25";"1";"FINISHED";"NONE";"success";"0";"1";"2013-12-18 12:24:12.267";"3";;;;;;;;;;;;;;;;;;;;;;;;;;;;;;;;;;;;;;;;;;;;;;;;;;;;;;;;;;;;;;;;;
"181213";;;"Windows 7";"Rachels Experiment";"1.0";"1";"1";"1";"1";"1";"1";"2013-12-18 12:17:16.635";"";"0";"1";"1";"1";"1";"139";"138";"module.training_block4.exec-9661.GoNoGo4";;;;;;;;;;;;;;;;;;;;;;;;;;;;;;;;;;"1249";"2013-12-18 12:24:16.033";"22";"0";"FINISHED";"LEFT";"success";"520";"0";"2013-12-18 12:24:14.783";"3";;;;;;;;;;;;;;;;;;;;;;;;;;;;;;;;;;;;;;;;;;;;;;;;;;;;;;;;;;;;;;;;;
"181213";;;"Windows 7";"Rachels Experiment";"1.0";"1";"1";"1";"1";"1";"1";"2013-12-18 12:17:16.635";"";"0";"1";"1";"1";"1";"140";"139";"module.training_block4.exec-9661.GoNoGo4";;;;;;;;;;;;;;;;;;;;;;;;;;;;;;;;;;"1250";"2013-12-18 12:24:18.549";"8";"0";"FINISHED";"NONE";"success";"0";"1";"2013-12-18 12:24:17.299";"1";;;;;;;;;;;;;;;;;;;;;;;;;;;;;;;;;;;;;;;;;;;;;;;;;;;;;;;;;;;;;;;;;
"181213";;;"Windows 7";"Rachels Experiment";"1.0";"1";"1";"1";"1";"1";"1";"2013-12-18 12:17:16.635";"";"0";"1";"1";"1";"1";"141";"140";"module.training_block4.exec-9661.GoNoGo4";;;;;;;;;;;;;;;;;;;;;;;;;;;;;;;;;;"1249";"2013-12-18 12:24:21.065";"5";"0";"FINISHED";"NONE";"success";"0";"1";"2013-12-18 12:24:19.815";"1";;;;;;;;;;;;;;;;;;;;;;;;;;;;;;;;;;;;;;;;;;;;;;;;;;;;;;;;;;;;;;;;;
"181213";;;"Windows 7";"Rachels Experiment";"1.0";"1";"1";"1";"1";"1";"1";"2013-12-18 12:17:16.635";"";"0";"1";"1";"1";"1";"142";"141";"module.training_block4.exec-9661.GoNoGo4";;;;;;;;;;;;;;;;;;;;;;;;;;;;;;;;;;"1249";"2013-12-18 12:24:23.582";"3";"0";"FINISHED";"NONE";"success";"0";"1";"2013-12-18 12:24:22.332";"1";;;;;;;;;;;;;;;;;;;;;;;;;;;;;;;;;;;;;;;;;;;;;;;;;;;;;;;;;;;;;;;;;
"181213";;;"Windows 7";"Rachels Experiment";"1.0";"1";"1";"1";"1";"1";"1";"2013-12-18 12:17:16.635";"";"0";"1";"1";"1";"1";"143";"142";"module.training_block4.exec-9661.GoNoGo4";;;;;;;;;;;;;;;;;;;;;;;;;;;;;;;;;;"1249";"2013-12-18 12:24:26.097";"16";"0";"FINISHED";"LEFT";"success";"775";"0";"2013-12-18 12:24:24.847";"2";;;;;;;;;;;;;;;;;;;;;;;;;;;;;;;;;;;;;;;;;;;;;;;;;;;;;;;;;;;;;;;;;
"181213";;;"Windows 7";"Rachels Experiment";"1.0";"1";"1";"1";"1";"1";"1";"2013-12-18 12:17:16.635";"";"0";"1";"1";"1";"1";"144";"143";"module.training_block4.exec-9661.GoNoGo4";;;;;;;;;;;;;;;;;;;;;;;;;;;;;;;;;;"1249";"2013-12-18 12:24:28.613";"35";"0";"FINISHED";"NONE";"success";"0";"1";"2013-12-18 12:24:27.363";"3";;;;;;;;;;;;;;;;;;;;;;;;;;;;;;;;;;;;;;;;;;;;;;;;;;;;;;;;;;;;;;;;;
"181213";;;"Windows 7";"Rachels Experiment";"1.0";"1";"1";"1";"1";"1";"1";"2013-12-18 12:17:16.635";"";"0";"1";"1";"1";"1";"145";"144";"module.training_block4.exec-9661.GoNoGo4";;;;;;;;;;;;;;;;;;;;;;;;;;;;;;;;;;"1249";"2013-12-18 12:24:31.150";"23";"1";"FINISHED";"NONE";"success";"0";"1";"2013-12-18 12:24:29.900";"3";;;;;;;;;;;;;;;;;;;;;;;;;;;;;;;;;;;;;;;;;;;;;;;;;;;;;;;;;;;;;;;;;
"181213";;;"Windows 7";"Rachels Experiment";"1.0";"1";"1";"1";"1";"1";"1";"2013-12-18 12:17:16.635";"";"0";"1";"1";"1";"1";"146";"145";"module.training_block4.exec-9661.GoNoGo4";;;;;;;;;;;;;;;;;;;;;;;;;;;;;;;;;;"1250";"2013-12-18 12:24:33.666";"2";"0";"FINISHED";"NONE";"success";"0";"1";"2013-12-18 12:24:32.416";"1";;;;;;;;;;;;;;;;;;;;;;;;;;;;;;;;;;;;;;;;;;;;;;;;;;;;;;;;;;;;;;;;;
"181213";;;"Windows 7";"Rachels Experiment";"1.0";"1";"1";"1";"1";"1";"1";"2013-12-18 12:17:16.635";"";"0";"1";"1";"1";"1";"147";"146";"module.training_block4.exec-9661.GoNoGo4";;;;;;;;;;;;;;;;;;;;;;;;;;;;;;;;;;"1249";"2013-12-18 12:24:36.182";"33";"0";"FINISHED";"NONE";"success";"0";"1";"2013-12-18 12:24:34.932";"3";;;;;;;;;;;;;;;;;;;;;;;;;;;;;;;;;;;;;;;;;;;;;;;;;;;;;;;;;;;;;;;;;
"181213";;;"Windows 7";"Rachels Experiment";"1.0";"1";"1";"1";"1";"1";"1";"2013-12-18 12:17:16.635";"";"0";"1";"1";"1";"1";"148";"147";"module.training_block4.exec-9661.GoNoGo4";;;;;;;;;;;;;;;;;;;;;;;;;;;;;;;;;;"1249";"2013-12-18 12:24:38.698";"13";"0";"FINISHED";"LEFT";"success";"694";"0";"2013-12-18 12:24:37.448";"2";;;;;;;;;;;;;;;;;;;;;;;;;;;;;;;;;;;;;;;;;;;;;;;;;;;;;;;;;;;;;;;;;
"181213";;;"Windows 7";"Rachels Experiment";"1.0";"1";"1";"1";"1";"1";"1";"2013-12-18 12:17:16.635";"";"0";"1";"1";"1";"1";"149";"148";"module.training_block4.exec-9661.GoNoGo4";;;;;;;;;;;;;;;;;;;;;;;;;;;;;;;;;;"1249";"2013-12-18 12:24:41.213";"20";"0";"FINISHED";"LEFT";"success";"619";"0";"2013-12-18 12:24:39.963";"3";;;;;;;;;;;;;;;;;;;;;;;;;;;;;;;;;;;;;;;;;;;;;;;;;;;;;;;;;;;;;;;;;
"181213";;;"Windows 7";"Rachels Experiment";"1.0";"1";"1";"1";"1";"1";"1";"2013-12-18 12:17:16.635";"";"0";"1";"1";"1";"1";"150";"149";"module.training_block4.exec-9661.GoNoGo4";;;;;;;;;;;;;;;;;;;;;;;;;;;;;;;;;;"1249";"2013-12-18 12:24:43.729";"4";"0";"FINISHED";"LEFT";"success";"455";"0";"2013-12-18 12:24:42.479";"1";;;;;;;;;;;;;;;;;;;;;;;;;;;;;;;;;;;;;;;;;;;;;;;;;;;;;;;;;;;;;;;;;
"181213";;;"Windows 7";"Rachels Experiment";"1.0";"1";"1";"1";"1";"1";"1";"2013-12-18 12:17:16.635";"";"0";"1";"1";"1";"1";"151";"150";"module.training_block4.exec-9661.GoNoGo4";;;;;;;;;;;;;;;;;;;;;;;;;;;;;;;;;;"1249";"2013-12-18 12:24:46.251";"17";"0";"FINISHED";"LEFT";"success";"805";"0";"2013-12-18 12:24:45.001";"2";;;;;;;;;;;;;;;;;;;;;;;;;;;;;;;;;;;;;;;;;;;;;;;;;;;;;;;;;;;;;;;;;
"181213";;;"Windows 7";"Rachels Experiment";"1.0";"1";"1";"1";"1";"1";"1";"2013-12-18 12:17:16.635";"";"0";"1";"1";"1";"1";"152";"151";"module.training_block4.exec-9661.GoNoGo4";;;;;;;;;;;;;;;;;;;;;;;;;;;;;;;;;;"1249";"2013-12-18 12:24:48.768";"15";"0";"FINISHED";"LEFT";"success";"416";"0";"2013-12-18 12:24:47.518";"2";;;;;;;;;;;;;;;;;;;;;;;;;;;;;;;;;;;;;;;;;;;;;;;;;;;;;;;;;;;;;;;;;
"181213";;;"Windows 7";"Rachels Experiment";"1.0";"1";"1";"1";"1";"1";"1";"2013-12-18 12:17:16.635";"";"0";"1";"1";"1";"1";"153";"152";"module.training_block4.exec-9661.GoNoGo4";;;;;;;;;;;;;;;;;;;;;;;;;;;;;;;;;;"1249";"2013-12-18 12:24:51.284";"31";"1";"FINISHED";"RIGHT";"success";"660";"0";"2013-12-18 12:24:50.034";"3";;;;;;;;;;;;;;;;;;;;;;;;;;;;;;;;;;;;;;;;;;;;;;;;;;;;;;;;;;;;;;;;;
"181213";;;"Windows 7";"Rachels Experiment";"1.0";"1";"1";"1";"1";"1";"1";"2013-12-18 12:17:16.635";"";"0";"1";"1";"1";"1";"154";"153";"module.training_block4.exec-9661.GoNoGo4";;;;;;;;;;;;;;;;;;;;;;;;;;;;;;;;;;"1249";"2013-12-18 12:24:53.800";"14";"0";"FINISHED";"LEFT";"success";"464";"0";"2013-12-18 12:24:52.550";"2";;;;;;;;;;;;;;;;;;;;;;;;;;;;;;;;;;;;;;;;;;;;;;;;;;;;;;;;;;;;;;;;;
"181213";;;"Windows 7";"Rachels Experiment";"1.0";"1";"1";"1";"1";"1";"1";"2013-12-18 12:17:16.635";"";"0";"1";"1";"1";"1";"155";"154";"module.training_block4.exec-9661.GoNoGo4";;;;;;;;;;;;;;;;;;;;;;;;;;;;;;;;;;"1249";"2013-12-18 12:24:56.316";"18";"1";"FINISHED";"NONE";"success";"0";"1";"2013-12-18 12:24:55.066";"3";;;;;;;;;;;;;;;;;;;;;;;;;;;;;;;;;;;;;;;;;;;;;;;;;;;;;;;;;;;;;;;;;
"181213";;;"Windows 7";"Rachels Experiment";"1.0";"1";"1";"1";"1";"1";"1";"2013-12-18 12:17:16.635";"";"0";"1";"1";"1";"1";"156";"155";"module.training_block4.exec-9661.GoNoGo4";;;;;;;;;;;;;;;;;;;;;;;;;;;;;;;;;;"1249";"2013-12-18 12:24:58.832";"30";"1";"FINISHED";"NONE";"success";"0";"1";"2013-12-18 12:24:57.582";"3";;;;;;;;;;;;;;;;;;;;;;;;;;;;;;;;;;;;;;;;;;;;;;;;;;;;;;;;;;;;;;;;;
"181213";;;"Windows 7";"Rachels Experiment";"1.0";"1";"1";"1";"1";"1";"1";"2013-12-18 12:17:16.635";"";"0";"1";"1";"1";"1";"157";"156";"module.training_block4.exec-9661.GoNoGo4";;;;;;;;;;;;;;;;;;;;;;;;;;;;;;;;;;"1249";"2013-12-18 12:25:01.348";"10";"0";"FINISHED";"LEFT";"success";"396";"0";"2013-12-18 12:25:00.098";"2";;;;;;;;;;;;;;;;;;;;;;;;;;;;;;;;;;;;;;;;;;;;;;;;;;;;;;;;;;;;;;;;;
"181213";;;"Windows 7";"Rachels Experiment";"1.0";"1";"1";"1";"1";"1";"1";"2013-12-18 12:17:16.635";"";"0";"1";"1";"1";"1";"158";"157";"module.training_block4.exec-9661.GoNoGo4";;;;;;;;;;;;;;;;;;;;;;;;;;;;;;;;;;"1249";"2013-12-18 12:25:03.865";"9";"1";"FINISHED";"NONE";"success";"0";"1";"2013-12-18 12:25:02.615";"2";;;;;;;;;;;;;;;;;;;;;;;;;;;;;;;;;;;;;;;;;;;;;;;;;;;;;;;;;;;;;;;;;
"181213";;;"Windows 7";"Rachels Experiment";"1.0";"1";"1";"1";"1";"1";"1";"2013-12-18 12:17:16.635";"";"0";"1";"1";"1";"1";"159";"158";"module.training_block4.exec-9661.GoNoGo4";;;;;;;;;;;;;;;;;;;;;;;;;;;;;;;;;;"1249";"2013-12-18 12:25:06.380";"1";"1";"FINISHED";"NONE";"success";"0";"1";"2013-12-18 12:25:05.130";"1";;;;;;;;;;;;;;;;;;;;;;;;;;;;;;;;;;;;;;;;;;;;;;;;;;;;;;;;;;;;;;;;;
"181213";;;"Windows 7";"Rachels Experiment";"1.0";"1";"1";"1";"1";"1";"1";"2013-12-18 12:17:16.635";"";"0";"1";"1";"1";"1";"160";"159";"module.training_block5.exec-8884.GoNoGo5";;;;;;;;;;;;;;;;;;;;;;;;;;;;;;;;;;;;;;;;;;;;;"1249";"2013-12-18 12:25:22.806";"5";"0";"FINISHED";"LEFT";"success";"1058";"0";"2013-12-18 12:25:21.556";"1";;;;;;;;;;;;;;;;;;;;;;;;;;;;;;;;;;;;;;;;;;;;;;;;;;;;;;
"181213";;;"Windows 7";"Rachels Experiment";"1.0";"1";"1";"1";"1";"1";"1";"2013-12-18 12:17:16.635";"";"0";"1";"1";"1";"1";"161";"160";"module.training_block5.exec-8884.GoNoGo5";;;;;;;;;;;;;;;;;;;;;;;;;;;;;;;;;;;;;;;;;;;;;"1249";"2013-12-18 12:25:25.322";"12";"1";"FINISHED";"RIGHT";"success";"390";"0";"2013-12-18 12:25:24.072";"2";;;;;;;;;;;;;;;;;;;;;;;;;;;;;;;;;;;;;;;;;;;;;;;;;;;;;;
"181213";;;"Windows 7";"Rachels Experiment";"1.0";"1";"1";"1";"1";"1";"1";"2013-12-18 12:17:16.635";"";"0";"1";"1";"1";"1";"162";"161";"module.training_block5.exec-8884.GoNoGo5";;;;;;;;;;;;;;;;;;;;;;;;;;;;;;;;;;;;;;;;;;;;;"1249";"2013-12-18 12:25:27.837";"26";"0";"FINISHED";"LEFT";"success";"379";"0";"2013-12-18 12:25:26.587";"3";;;;;;;;;;;;;;;;;;;;;;;;;;;;;;;;;;;;;;;;;;;;;;;;;;;;;;
"181213";;;"Windows 7";"Rachels Experiment";"1.0";"1";"1";"1";"1";"1";"1";"2013-12-18 12:17:16.635";"";"0";"1";"1";"1";"1";"163";"162";"module.training_block5.exec-8884.GoNoGo5";;;;;;;;;;;;;;;;;;;;;;;;;;;;;;;;;;;;;;;;;;;;;"1249";"2013-12-18 12:25:30.353";"1";"0";"FINISHED";"NONE";"success";"0";"1";"2013-12-18 12:25:29.103";"1";;;;;;;;;;;;;;;;;;;;;;;;;;;;;;;;;;;;;;;;;;;;;;;;;;;;;;
"181213";;;"Windows 7";"Rachels Experiment";"1.0";"1";"1";"1";"1";"1";"1";"2013-12-18 12:17:16.635";"";"0";"1";"1";"1";"1";"164";"163";"module.training_block5.exec-8884.GoNoGo5";;;;;;;;;;;;;;;;;;;;;;;;;;;;;;;;;;;;;;;;;;;;;"1249";"2013-12-18 12:25:32.869";"28";"0";"FINISHED";"NONE";"success";"0";"1";"2013-12-18 12:25:31.619";"3";;;;;;;;;;;;;;;;;;;;;;;;;;;;;;;;;;;;;;;;;;;;;;;;;;;;;;
"181213";;;"Windows 7";"Rachels Experiment";"1.0";"1";"1";"1";"1";"1";"1";"2013-12-18 12:17:16.635";"";"0";"1";"1";"1";"1";"165";"164";"module.training_block5.exec-8884.GoNoGo5";;;;;;;;;;;;;;;;;;;;;;;;;;;;;;;;;;;;;;;;;;;;;"1249";"2013-12-18 12:25:35.384";"27";"1";"FINISHED";"RIGHT";"success";"328";"0";"2013-12-18 12:25:34.134";"3";;;;;;;;;;;;;;;;;;;;;;;;;;;;;;;;;;;;;;;;;;;;;;;;;;;;;;
"181213";;;"Windows 7";"Rachels Experiment";"1.0";"1";"1";"1";"1";"1";"1";"2013-12-18 12:17:16.635";"";"0";"1";"1";"1";"1";"166";"165";"module.training_block5.exec-8884.GoNoGo5";;;;;;;;;;;;;;;;;;;;;;;;;;;;;;;;;;;;;;;;;;;;;"1249";"2013-12-18 12:25:37.900";"13";"0";"FINISHED";"LEFT";"success";"364";"0";"2013-12-18 12:25:36.650";"2";;;;;;;;;;;;;;;;;;;;;;;;;;;;;;;;;;;;;;;;;;;;;;;;;;;;;;
"181213";;;"Windows 7";"Rachels Experiment";"1.0";"1";"1";"1";"1";"1";"1";"2013-12-18 12:17:16.635";"";"0";"1";"1";"1";"1";"167";"166";"module.training_block5.exec-8884.GoNoGo5";;;;;;;;;;;;;;;;;;;;;;;;;;;;;;;;;;;;;;;;;;;;;"1249";"2013-12-18 12:25:40.416";"34";"1";"FINISHED";"RIGHT";"success";"328";"0";"2013-12-18 12:25:39.166";"3";;;;;;;;;;;;;;;;;;;;;;;;;;;;;;;;;;;;;;;;;;;;;;;;;;;;;;
"181213";;;"Windows 7";"Rachels Experiment";"1.0";"1";"1";"1";"1";"1";"1";"2013-12-18 12:17:16.635";"";"0";"1";"1";"1";"1";"168";"167";"module.training_block5.exec-8884.GoNoGo5";;;;;;;;;;;;;;;;;;;;;;;;;;;;;;;;;;;;;;;;;;;;;"1249";"2013-12-18 12:25:42.931";"17";"1";"FINISHED";"RIGHT";"success";"349";"0";"2013-12-18 12:25:41.681";"2";;;;;;;;;;;;;;;;;;;;;;;;;;;;;;;;;;;;;;;;;;;;;;;;;;;;;;
"181213";;;"Windows 7";"Rachels Experiment";"1.0";"1";"1";"1";"1";"1";"1";"2013-12-18 12:17:16.635";"";"0";"1";"1";"1";"1";"169";"168";"module.training_block5.exec-8884.GoNoGo5";;;;;;;;;;;;;;;;;;;;;;;;;;;;;;;;;;;;;;;;;;;;;"1249";"2013-12-18 12:25:45.447";"25";"0";"FINISHED";"LEFT";"failure";"505";"1";"2013-12-18 12:25:44.197";"3";;;;;;;;;;;;;;;;;;;;;;;;;;;;;;;;;;;;;;;;;;;;;;;;;;;;;;
"181213";;;"Windows 7";"Rachels Experiment";"1.0";"1";"1";"1";"1";"1";"1";"2013-12-18 12:17:16.635";"";"0";"1";"1";"1";"1";"170";"169";"module.training_block5.exec-8884.GoNoGo5";;;;;;;;;;;;;;;;;;;;;;;;;;;;;;;;;;;;;;;;;;;;;"1249";"2013-12-18 12:25:47.962";"35";"1";"FINISHED";"RIGHT";"success";"294";"0";"2013-12-18 12:25:46.712";"3";;;;;;;;;;;;;;;;;;;;;;;;;;;;;;;;;;;;;;;;;;;;;;;;;;;;;;
"181213";;;"Windows 7";"Rachels Experiment";"1.0";"1";"1";"1";"1";"1";"1";"2013-12-18 12:17:16.635";"";"0";"1";"1";"1";"1";"171";"170";"module.training_block5.exec-8884.GoNoGo5";;;;;;;;;;;;;;;;;;;;;;;;;;;;;;;;;;;;;;;;;;;;;"1249";"2013-12-18 12:25:50.476";"16";"1";"FINISHED";"RIGHT";"success";"388";"0";"2013-12-18 12:25:49.226";"2";;;;;;;;;;;;;;;;;;;;;;;;;;;;;;;;;;;;;;;;;;;;;;;;;;;;;;
"181213";;;"Windows 7";"Rachels Experiment";"1.0";"1";"1";"1";"1";"1";"1";"2013-12-18 12:17:16.635";"";"0";"1";"1";"1";"1";"172";"171";"module.training_block5.exec-8884.GoNoGo5";;;;;;;;;;;;;;;;;;;;;;;;;;;;;;;;;;;;;;;;;;;;;"1250";"2013-12-18 12:25:52.991";"0";"0";"FINISHED";"NONE";"success";"0";"1";"2013-12-18 12:25:51.741";"1";;;;;;;;;;;;;;;;;;;;;;;;;;;;;;;;;;;;;;;;;;;;;;;;;;;;;;
"181213";;;"Windows 7";"Rachels Experiment";"1.0";"1";"1";"1";"1";"1";"1";"2013-12-18 12:17:16.635";"";"0";"1";"1";"1";"1";"173";"172";"module.training_block5.exec-8884.GoNoGo5";;;;;;;;;;;;;;;;;;;;;;;;;;;;;;;;;;;;;;;;;;;;;"1249";"2013-12-18 12:25:55.504";"3";"1";"FINISHED";"NONE";"success";"0";"1";"2013-12-18 12:25:54.254";"1";;;;;;;;;;;;;;;;;;;;;;;;;;;;;;;;;;;;;;;;;;;;;;;;;;;;;;
"181213";;;"Windows 7";"Rachels Experiment";"1.0";"1";"1";"1";"1";"1";"1";"2013-12-18 12:17:16.635";"";"0";"1";"1";"1";"1";"174";"173";"module.training_block5.exec-8884.GoNoGo5";;;;;;;;;;;;;;;;;;;;;;;;;;;;;;;;;;;;;;;;;;;;;"1249";"2013-12-18 12:25:58.020";"30";"0";"FINISHED";"LEFT";"success";"564";"0";"2013-12-18 12:25:56.770";"3";;;;;;;;;;;;;;;;;;;;;;;;;;;;;;;;;;;;;;;;;;;;;;;;;;;;;;
"181213";;;"Windows 7";"Rachels Experiment";"1.0";"1";"1";"1";"1";"1";"1";"2013-12-18 12:17:16.635";"";"0";"1";"1";"1";"1";"175";"174";"module.training_block5.exec-8884.GoNoGo5";;;;;;;;;;;;;;;;;;;;;;;;;;;;;;;;;;;;;;;;;;;;;"1249";"2013-12-18 12:26:00.536";"14";"0";"FINISHED";"NONE";"success";"0";"1";"2013-12-18 12:25:59.286";"2";;;;;;;;;;;;;;;;;;;;;;;;;;;;;;;;;;;;;;;;;;;;;;;;;;;;;;
"181213";;;"Windows 7";"Rachels Experiment";"1.0";"1";"1";"1";"1";"1";"1";"2013-12-18 12:17:16.635";"";"0";"1";"1";"1";"1";"176";"175";"module.training_block5.exec-8884.GoNoGo5";;;;;;;;;;;;;;;;;;;;;;;;;;;;;;;;;;;;;;;;;;;;;"1249";"2013-12-18 12:26:03.051";"20";"0";"FINISHED";"LEFT";"success";"421";"0";"2013-12-18 12:26:01.801";"3";;;;;;;;;;;;;;;;;;;;;;;;;;;;;;;;;;;;;;;;;;;;;;;;;;;;;;
"181213";;;"Windows 7";"Rachels Experiment";"1.0";"1";"1";"1";"1";"1";"1";"2013-12-18 12:17:16.635";"";"0";"1";"1";"1";"1";"177";"176";"module.training_block5.exec-8884.GoNoGo5";;;;;;;;;;;;;;;;;;;;;;;;;;;;;;;;;;;;;;;;;;;;;"1249";"2013-12-18 12:26:05.567";"2";"0";"FINISHED";"NONE";"success";"0";"1";"2013-12-18 12:26:04.317";"1";;;;;;;;;;;;;;;;;;;;;;;;;;;;;;;;;;;;;;;;;;;;;;;;;;;;;;
"181213";;;"Windows 7";"Rachels Experiment";"1.0";"1";"1";"1";"1";"1";"1";"2013-12-18 12:17:16.635";"";"0";"1";"1";"1";"1";"178";"177";"module.training_block5.exec-8884.GoNoGo5";;;;;;;;;;;;;;;;;;;;;;;;;;;;;;;;;;;;;;;;;;;;;"1249";"2013-12-18 12:26:08.088";"10";"1";"FINISHED";"RIGHT";"success";"728";"0";"2013-12-18 12:26:06.838";"2";;;;;;;;;;;;;;;;;;;;;;;;;;;;;;;;;;;;;;;;;;;;;;;;;;;;;;
"181213";;;"Windows 7";"Rachels Experiment";"1.0";"1";"1";"1";"1";"1";"1";"2013-12-18 12:17:16.635";"";"0";"1";"1";"1";"1";"179";"178";"module.training_block5.exec-8884.GoNoGo5";;;;;;;;;;;;;;;;;;;;;;;;;;;;;;;;;;;;;;;;;;;;;"1249";"2013-12-18 12:26:10.604";"24";"0";"FINISHED";"LEFT";"failure";"452";"1";"2013-12-18 12:26:09.354";"3";;;;;;;;;;;;;;;;;;;;;;;;;;;;;;;;;;;;;;;;;;;;;;;;;;;;;;
"181213";;;"Windows 7";"Rachels Experiment";"1.0";"1";"1";"1";"1";"1";"1";"2013-12-18 12:17:16.635";"";"0";"1";"1";"1";"1";"180";"179";"module.training_block5.exec-8884.GoNoGo5";;;;;;;;;;;;;;;;;;;;;;;;;;;;;;;;;;;;;;;;;;;;;"1249";"2013-12-18 12:26:13.120";"32";"0";"FINISHED";"NONE";"success";"0";"1";"2013-12-18 12:26:11.870";"3";;;;;;;;;;;;;;;;;;;;;;;;;;;;;;;;;;;;;;;;;;;;;;;;;;;;;;
"181213";;;"Windows 7";"Rachels Experiment";"1.0";"1";"1";"1";"1";"1";"1";"2013-12-18 12:17:16.635";"";"0";"1";"1";"1";"1";"181";"180";"module.training_block5.exec-8884.GoNoGo5";;;;;;;;;;;;;;;;;;;;;;;;;;;;;;;;;;;;;;;;;;;;;"1249";"2013-12-18 12:26:15.635";"22";"1";"FINISHED";"NONE";"success";"0";"1";"2013-12-18 12:26:14.385";"3";;;;;;;;;;;;;;;;;;;;;;;;;;;;;;;;;;;;;;;;;;;;;;;;;;;;;;
"181213";;;"Windows 7";"Rachels Experiment";"1.0";"1";"1";"1";"1";"1";"1";"2013-12-18 12:17:16.635";"";"0";"1";"1";"1";"1";"182";"181";"module.training_block5.exec-8884.GoNoGo5";;;;;;;;;;;;;;;;;;;;;;;;;;;;;;;;;;;;;;;;;;;;;"1249";"2013-12-18 12:26:18.151";"33";"1";"FINISHED";"RIGHT";"success";"553";"0";"2013-12-18 12:26:16.901";"3";;;;;;;;;;;;;;;;;;;;;;;;;;;;;;;;;;;;;;;;;;;;;;;;;;;;;;
"181213";;;"Windows 7";"Rachels Experiment";"1.0";"1";"1";"1";"1";"1";"1";"2013-12-18 12:17:16.635";"";"0";"1";"1";"1";"1";"183";"182";"module.training_block5.exec-8884.GoNoGo5";;;;;;;;;;;;;;;;;;;;;;;;;;;;;;;;;;;;;;;;;;;;;"1249";"2013-12-18 12:26:20.666";"29";"0";"FINISHED";"NONE";"success";"0";"1";"2013-12-18 12:26:19.416";"3";;;;;;;;;;;;;;;;;;;;;;;;;;;;;;;;;;;;;;;;;;;;;;;;;;;;;;
"181213";;;"Windows 7";"Rachels Experiment";"1.0";"1";"1";"1";"1";"1";"1";"2013-12-18 12:17:16.635";"";"0";"1";"1";"1";"1";"184";"183";"module.training_block5.exec-8884.GoNoGo5";;;;;;;;;;;;;;;;;;;;;;;;;;;;;;;;;;;;;;;;;;;;;"1249";"2013-12-18 12:26:23.183";"11";"1";"FINISHED";"RIGHT";"success";"385";"0";"2013-12-18 12:26:21.933";"2";;;;;;;;;;;;;;;;;;;;;;;;;;;;;;;;;;;;;;;;;;;;;;;;;;;;;;
"181213";;;"Windows 7";"Rachels Experiment";"1.0";"1";"1";"1";"1";"1";"1";"2013-12-18 12:17:16.635";"";"0";"1";"1";"1";"1";"185";"184";"module.training_block5.exec-8884.GoNoGo5";;;;;;;;;;;;;;;;;;;;;;;;;;;;;;;;;;;;;;;;;;;;;"1249";"2013-12-18 12:26:25.699";"31";"1";"FINISHED";"NONE";"success";"0";"1";"2013-12-18 12:26:24.449";"3";;;;;;;;;;;;;;;;;;;;;;;;;;;;;;;;;;;;;;;;;;;;;;;;;;;;;;
"181213";;;"Windows 7";"Rachels Experiment";"1.0";"1";"1";"1";"1";"1";"1";"2013-12-18 12:17:16.635";"";"0";"1";"1";"1";"1";"186";"185";"module.training_block5.exec-8884.GoNoGo5";;;;;;;;;;;;;;;;;;;;;;;;;;;;;;;;;;;;;;;;;;;;;"1249";"2013-12-18 12:26:28.214";"4";"1";"FINISHED";"RIGHT";"failure";"393";"1";"2013-12-18 12:26:26.964";"1";;;;;;;;;;;;;;;;;;;;;;;;;;;;;;;;;;;;;;;;;;;;;;;;;;;;;;
"181213";;;"Windows 7";"Rachels Experiment";"1.0";"1";"1";"1";"1";"1";"1";"2013-12-18 12:17:16.635";"";"0";"1";"1";"1";"1";"187";"186";"module.training_block5.exec-8884.GoNoGo5";;;;;;;;;;;;;;;;;;;;;;;;;;;;;;;;;;;;;;;;;;;;;"1249";"2013-12-18 12:26:30.730";"18";"1";"FINISHED";"NONE";"success";"0";"1";"2013-12-18 12:26:29.480";"3";;;;;;;;;;;;;;;;;;;;;;;;;;;;;;;;;;;;;;;;;;;;;;;;;;;;;;
"181213";;;"Windows 7";"Rachels Experiment";"1.0";"1";"1";"1";"1";"1";"1";"2013-12-18 12:17:16.635";"";"0";"1";"1";"1";"1";"188";"187";"module.training_block5.exec-8884.GoNoGo5";;;;;;;;;;;;;;;;;;;;;;;;;;;;;;;;;;;;;;;;;;;;;"1249";"2013-12-18 12:26:33.246";"21";"1";"FINISHED";"RIGHT";"success";"474";"0";"2013-12-18 12:26:31.996";"3";;;;;;;;;;;;;;;;;;;;;;;;;;;;;;;;;;;;;;;;;;;;;;;;;;;;;;
"181213";;;"Windows 7";"Rachels Experiment";"1.0";"1";"1";"1";"1";"1";"1";"2013-12-18 12:17:16.635";"";"0";"1";"1";"1";"1";"189";"188";"module.training_block5.exec-8884.GoNoGo5";;;;;;;;;;;;;;;;;;;;;;;;;;;;;;;;;;;;;;;;;;;;;"1249";"2013-12-18 12:26:35.761";"8";"1";"FINISHED";"NONE";"success";"0";"1";"2013-12-18 12:26:34.511";"1";;;;;;;;;;;;;;;;;;;;;;;;;;;;;;;;;;;;;;;;;;;;;;;;;;;;;;
"181213";;;"Windows 7";"Rachels Experiment";"1.0";"1";"1";"1";"1";"1";"1";"2013-12-18 12:17:16.635";"";"0";"1";"1";"1";"1";"190";"189";"module.training_block5.exec-8884.GoNoGo5";;;;;;;;;;;;;;;;;;;;;;;;;;;;;;;;;;;;;;;;;;;;;"1249";"2013-12-18 12:26:38.277";"6";"1";"FINISHED";"NONE";"success";"0";"1";"2013-12-18 12:26:37.027";"1";;;;;;;;;;;;;;;;;;;;;;;;;;;;;;;;;;;;;;;;;;;;;;;;;;;;;;
"181213";;;"Windows 7";"Rachels Experiment";"1.0";"1";"1";"1";"1";"1";"1";"2013-12-18 12:17:16.635";"";"0";"1";"1";"1";"1";"191";"190";"module.training_block5.exec-8884.GoNoGo5";;;;;;;;;;;;;;;;;;;;;;;;;;;;;;;;;;;;;;;;;;;;;"1249";"2013-12-18 12:26:40.792";"9";"0";"FINISHED";"LEFT";"success";"567";"0";"2013-12-18 12:26:39.542";"2";;;;;;;;;;;;;;;;;;;;;;;;;;;;;;;;;;;;;;;;;;;;;;;;;;;;;;
"181213";;;"Windows 7";"Rachels Experiment";"1.0";"1";"1";"1";"1";"1";"1";"2013-12-18 12:17:16.635";"";"0";"1";"1";"1";"1";"192";"191";"module.training_block5.exec-8884.GoNoGo5";;;;;;;;;;;;;;;;;;;;;;;;;;;;;;;;;;;;;;;;;;;;;"1249";"2013-12-18 12:26:43.308";"15";"0";"FINISHED";"LEFT";"success";"460";"0";"2013-12-18 12:26:42.058";"2";;;;;;;;;;;;;;;;;;;;;;;;;;;;;;;;;;;;;;;;;;;;;;;;;;;;;;
"181213";;;"Windows 7";"Rachels Experiment";"1.0";"1";"1";"1";"1";"1";"1";"2013-12-18 12:17:16.635";"";"0";"1";"1";"1";"1";"193";"192";"module.training_block5.exec-8884.GoNoGo5";;;;;;;;;;;;;;;;;;;;;;;;;;;;;;;;;;;;;;;;;;;;;"1249";"2013-12-18 12:26:45.825";"19";"1";"FINISHED";"RIGHT";"success";"767";"0";"2013-12-18 12:26:44.575";"3";;;;;;;;;;;;;;;;;;;;;;;;;;;;;;;;;;;;;;;;;;;;;;;;;;;;;;
"181213";;;"Windows 7";"Rachels Experiment";"1.0";"1";"1";"1";"1";"1";"1";"2013-12-18 12:17:16.635";"";"0";"1";"1";"1";"1";"194";"193";"module.training_block5.exec-8884.GoNoGo5";;;;;;;;;;;;;;;;;;;;;;;;;;;;;;;;;;;;;;;;;;;;;"1249";"2013-12-18 12:26:48.340";"23";"1";"FINISHED";"NONE";"success";"0";"1";"2013-12-18 12:26:47.090";"3";;;;;;;;;;;;;;;;;;;;;;;;;;;;;;;;;;;;;;;;;;;;;;;;;;;;;;
"181213";;;"Windows 7";"Rachels Experiment";"1.0";"1";"1";"1";"1";"1";"1";"2013-12-18 12:17:16.635";"";"0";"1";"1";"1";"1";"195";"194";"module.training_block5.exec-8884.GoNoGo5";;;;;;;;;;;;;;;;;;;;;;;;;;;;;;;;;;;;;;;;;;;;;"1249";"2013-12-18 12:26:50.856";"7";"0";"FINISHED";"NONE";"success";"0";"1";"2013-12-18 12:26:49.606";"1";;;;;;;;;;;;;;;;;;;;;;;;;;;;;;;;;;;;;;;;;;;;;;;;;;;;;;
"181213";;;"Windows 7";"Rachels Experiment";"1.0";"1";"1";"1";"1";"1";"1";"2013-12-18 12:17:16.635";"";"0";"1";"1";"1";"1";"196";"195";"module.training_block6.exec-6684.GoNoGo6";;;;;;;;;;;;;;;;;;;;;;;;;;;;;;;;;;;;;;;;;;;;;;;;;;;;;;;;"1250";"2013-12-18 12:27:06.799";"0";"1";"FINISHED";"NONE";"success";"0";"1";"2013-12-18 12:27:05.549";"1";;;;;;;;;;;;;;;;;;;;;;;;;;;;;;;;;;;;;;;;;;;
"181213";;;"Windows 7";"Rachels Experiment";"1.0";"1";"1";"1";"1";"1";"1";"2013-12-18 12:17:16.635";"";"0";"1";"1";"1";"1";"197";"196";"module.training_block6.exec-6684.GoNoGo6";;;;;;;;;;;;;;;;;;;;;;;;;;;;;;;;;;;;;;;;;;;;;;;;;;;;;;;;"1249";"2013-12-18 12:27:09.316";"11";"1";"FINISHED";"NONE";"success";"0";"1";"2013-12-18 12:27:08.066";"2";;;;;;;;;;;;;;;;;;;;;;;;;;;;;;;;;;;;;;;;;;;
"181213";;;"Windows 7";"Rachels Experiment";"1.0";"1";"1";"1";"1";"1";"1";"2013-12-18 12:17:16.635";"";"0";"1";"1";"1";"1";"198";"197";"module.training_block6.exec-6684.GoNoGo6";;;;;;;;;;;;;;;;;;;;;;;;;;;;;;;;;;;;;;;;;;;;;;;;;;;;;;;;"1249";"2013-12-18 12:27:11.832";"25";"1";"FINISHED";"RIGHT";"success";"584";"0";"2013-12-18 12:27:10.582";"3";;;;;;;;;;;;;;;;;;;;;;;;;;;;;;;;;;;;;;;;;;;
"181213";;;"Windows 7";"Rachels Experiment";"1.0";"1";"1";"1";"1";"1";"1";"2013-12-18 12:17:16.635";"";"0";"1";"1";"1";"1";"199";"198";"module.training_block6.exec-6684.GoNoGo6";;;;;;;;;;;;;;;;;;;;;;;;;;;;;;;;;;;;;;;;;;;;;;;;;;;;;;;;"1249";"2013-12-18 12:27:14.347";"10";"0";"FINISHED";"LEFT";"success";"421";"0";"2013-12-18 12:27:13.097";"2";;;;;;;;;;;;;;;;;;;;;;;;;;;;;;;;;;;;;;;;;;;
"181213";;;"Windows 7";"Rachels Experiment";"1.0";"1";"1";"1";"1";"1";"1";"2013-12-18 12:17:16.635";"";"0";"1";"1";"1";"1";"200";"199";"module.training_block6.exec-6684.GoNoGo6";;;;;;;;;;;;;;;;;;;;;;;;;;;;;;;;;;;;;;;;;;;;;;;;;;;;;;;;"1249";"2013-12-18 12:27:16.863";"23";"0";"FINISHED";"LEFT";"failure";"369";"1";"2013-12-18 12:27:15.613";"3";;;;;;;;;;;;;;;;;;;;;;;;;;;;;;;;;;;;;;;;;;;
"181213";;;"Windows 7";"Rachels Experiment";"1.0";"1";"1";"1";"1";"1";"1";"2013-12-18 12:17:16.635";"";"0";"1";"1";"1";"1";"201";"200";"module.training_block6.exec-6684.GoNoGo6";;;;;;;;;;;;;;;;;;;;;;;;;;;;;;;;;;;;;;;;;;;;;;;;;;;;;;;;"1249";"2013-12-18 12:27:19.379";"18";"1";"FINISHED";"NONE";"success";"0";"1";"2013-12-18 12:27:18.129";"3";;;;;;;;;;;;;;;;;;;;;;;;;;;;;;;;;;;;;;;;;;;
"181213";;;"Windows 7";"Rachels Experiment";"1.0";"1";"1";"1";"1";"1";"1";"2013-12-18 12:17:16.635";"";"0";"1";"1";"1";"1";"202";"201";"module.training_block6.exec-6684.GoNoGo6";;;;;;;;;;;;;;;;;;;;;;;;;;;;;;;;;;;;;;;;;;;;;;;;;;;;;;;;"1249";"2013-12-18 12:27:21.895";"27";"1";"FINISHED";"NONE";"success";"0";"1";"2013-12-18 12:27:20.645";"3";;;;;;;;;;;;;;;;;;;;;;;;;;;;;;;;;;;;;;;;;;;
"181213";;;"Windows 7";"Rachels Experiment";"1.0";"1";"1";"1";"1";"1";"1";"2013-12-18 12:17:16.635";"";"0";"1";"1";"1";"1";"203";"202";"module.training_block6.exec-6684.GoNoGo6";;;;;;;;;;;;;;;;;;;;;;;;;;;;;;;;;;;;;;;;;;;;;;;;;;;;;;;;"1249";"2013-12-18 12:27:24.411";"26";"1";"FINISHED";"NONE";"success";"0";"1";"2013-12-18 12:27:23.161";"3";;;;;;;;;;;;;;;;;;;;;;;;;;;;;;;;;;;;;;;;;;;
"181213";;;"Windows 7";"Rachels Experiment";"1.0";"1";"1";"1";"1";"1";"1";"2013-12-18 12:17:16.635";"";"0";"1";"1";"1";"1";"204";"203";"module.training_block6.exec-6684.GoNoGo6";;;;;;;;;;;;;;;;;;;;;;;;;;;;;;;;;;;;;;;;;;;;;;;;;;;;;;;;"1250";"2013-12-18 12:27:26.932";"2";"0";"FINISHED";"NONE";"success";"0";"1";"2013-12-18 12:27:25.682";"1";;;;;;;;;;;;;;;;;;;;;;;;;;;;;;;;;;;;;;;;;;;
"181213";;;"Windows 7";"Rachels Experiment";"1.0";"1";"1";"1";"1";"1";"1";"2013-12-18 12:17:16.635";"";"0";"1";"1";"1";"1";"205";"204";"module.training_block6.exec-6684.GoNoGo6";;;;;;;;;;;;;;;;;;;;;;;;;;;;;;;;;;;;;;;;;;;;;;;;;;;;;;;;"1249";"2013-12-18 12:27:29.452";"35";"1";"FINISHED";"RIGHT";"success";"524";"0";"2013-12-18 12:27:28.202";"3";;;;;;;;;;;;;;;;;;;;;;;;;;;;;;;;;;;;;;;;;;;
"181213";;;"Windows 7";"Rachels Experiment";"1.0";"1";"1";"1";"1";"1";"1";"2013-12-18 12:17:16.635";"";"0";"1";"1";"1";"1";"206";"205";"module.training_block6.exec-6684.GoNoGo6";;;;;;;;;;;;;;;;;;;;;;;;;;;;;;;;;;;;;;;;;;;;;;;;;;;;;;;;"1249";"2013-12-18 12:27:31.967";"21";"1";"FINISHED";"LEFT";"failure";"1056";"0";"2013-12-18 12:27:30.717";"3";;;;;;;;;;;;;;;;;;;;;;;;;;;;;;;;;;;;;;;;;;;
"181213";;;"Windows 7";"Rachels Experiment";"1.0";"1";"1";"1";"1";"1";"1";"2013-12-18 12:17:16.635";"";"0";"1";"1";"1";"1";"207";"206";"module.training_block6.exec-6684.GoNoGo6";;;;;;;;;;;;;;;;;;;;;;;;;;;;;;;;;;;;;;;;;;;;;;;;;;;;;;;;"1249";"2013-12-18 12:27:34.483";"33";"1";"FINISHED";"RIGHT";"success";"837";"0";"2013-12-18 12:27:33.233";"3";;;;;;;;;;;;;;;;;;;;;;;;;;;;;;;;;;;;;;;;;;;
"181213";;;"Windows 7";"Rachels Experiment";"1.0";"1";"1";"1";"1";"1";"1";"2013-12-18 12:17:16.635";"";"0";"1";"1";"1";"1";"208";"207";"module.training_block6.exec-6684.GoNoGo6";;;;;;;;;;;;;;;;;;;;;;;;;;;;;;;;;;;;;;;;;;;;;;;;;;;;;;;;"1249";"2013-12-18 12:27:36.999";"8";"0";"FINISHED";"NONE";"success";"0";"1";"2013-12-18 12:27:35.749";"1";;;;;;;;;;;;;;;;;;;;;;;;;;;;;;;;;;;;;;;;;;;
"181213";;;"Windows 7";"Rachels Experiment";"1.0";"1";"1";"1";"1";"1";"1";"2013-12-18 12:17:16.635";"";"0";"1";"1";"1";"1";"209";"208";"module.training_block6.exec-6684.GoNoGo6";;;;;;;;;;;;;;;;;;;;;;;;;;;;;;;;;;;;;;;;;;;;;;;;;;;;;;;;"1249";"2013-12-18 12:27:39.514";"6";"0";"FINISHED";"NONE";"success";"0";"1";"2013-12-18 12:27:38.264";"1";;;;;;;;;;;;;;;;;;;;;;;;;;;;;;;;;;;;;;;;;;;
"181213";;;"Windows 7";"Rachels Experiment";"1.0";"1";"1";"1";"1";"1";"1";"2013-12-18 12:17:16.635";"";"0";"1";"1";"1";"1";"210";"209";"module.training_block6.exec-6684.GoNoGo6";;;;;;;;;;;;;;;;;;;;;;;;;;;;;;;;;;;;;;;;;;;;;;;;;;;;;;;;"1249";"2013-12-18 12:27:42.030";"13";"1";"FINISHED";"RIGHT";"success";"426";"0";"2013-12-18 12:27:40.780";"2";;;;;;;;;;;;;;;;;;;;;;;;;;;;;;;;;;;;;;;;;;;
"181213";;;"Windows 7";"Rachels Experiment";"1.0";"1";"1";"1";"1";"1";"1";"2013-12-18 12:17:16.635";"";"0";"1";"1";"1";"1";"211";"210";"module.training_block6.exec-6684.GoNoGo6";;;;;;;;;;;;;;;;;;;;;;;;;;;;;;;;;;;;;;;;;;;;;;;;;;;;;;;;"1250";"2013-12-18 12:27:44.546";"5";"0";"FINISHED";"NONE";"success";"0";"1";"2013-12-18 12:27:43.296";"1";;;;;;;;;;;;;;;;;;;;;;;;;;;;;;;;;;;;;;;;;;;
"181213";;;"Windows 7";"Rachels Experiment";"1.0";"1";"1";"1";"1";"1";"1";"2013-12-18 12:17:16.635";"";"0";"1";"1";"1";"1";"212";"211";"module.training_block6.exec-6684.GoNoGo6";;;;;;;;;;;;;;;;;;;;;;;;;;;;;;;;;;;;;;;;;;;;;;;;;;;;;;;;"1249";"2013-12-18 12:27:47.062";"7";"0";"FINISHED";"LEFT";"success";"1058";"0";"2013-12-18 12:27:45.812";"1";;;;;;;;;;;;;;;;;;;;;;;;;;;;;;;;;;;;;;;;;;;
"181213";;;"Windows 7";"Rachels Experiment";"1.0";"1";"1";"1";"1";"1";"1";"2013-12-18 12:17:16.635";"";"0";"1";"1";"1";"1";"213";"212";"module.training_block6.exec-6684.GoNoGo6";;;;;;;;;;;;;;;;;;;;;;;;;;;;;;;;;;;;;;;;;;;;;;;;;;;;;;;;"1249";"2013-12-18 12:27:49.577";"15";"1";"FINISHED";"RIGHT";"success";"303";"0";"2013-12-18 12:27:48.327";"2";;;;;;;;;;;;;;;;;;;;;;;;;;;;;;;;;;;;;;;;;;;
"181213";;;"Windows 7";"Rachels Experiment";"1.0";"1";"1";"1";"1";"1";"1";"2013-12-18 12:17:16.635";"";"0";"1";"1";"1";"1";"214";"213";"module.training_block6.exec-6684.GoNoGo6";;;;;;;;;;;;;;;;;;;;;;;;;;;;;;;;;;;;;;;;;;;;;;;;;;;;;;;;"1249";"2013-12-18 12:27:52.091";"1";"0";"FINISHED";"LEFT";"failure";"388";"1";"2013-12-18 12:27:50.841";"1";;;;;;;;;;;;;;;;;;;;;;;;;;;;;;;;;;;;;;;;;;;
"181213";;;"Windows 7";"Rachels Experiment";"1.0";"1";"1";"1";"1";"1";"1";"2013-12-18 12:17:16.635";"";"0";"1";"1";"1";"1";"215";"214";"module.training_block6.exec-6684.GoNoGo6";;;;;;;;;;;;;;;;;;;;;;;;;;;;;;;;;;;;;;;;;;;;;;;;;;;;;;;;"1249";"2013-12-18 12:27:54.607";"20";"0";"FINISHED";"NONE";"success";"0";"1";"2013-12-18 12:27:53.357";"3";;;;;;;;;;;;;;;;;;;;;;;;;;;;;;;;;;;;;;;;;;;
"181213";;;"Windows 7";"Rachels Experiment";"1.0";"1";"1";"1";"1";"1";"1";"2013-12-18 12:17:16.635";"";"0";"1";"1";"1";"1";"216";"215";"module.training_block6.exec-6684.GoNoGo6";;;;;;;;;;;;;;;;;;;;;;;;;;;;;;;;;;;;;;;;;;;;;;;;;;;;;;;;"1249";"2013-12-18 12:27:57.123";"16";"1";"FINISHED";"RIGHT";"success";"341";"0";"2013-12-18 12:27:55.873";"2";;;;;;;;;;;;;;;;;;;;;;;;;;;;;;;;;;;;;;;;;;;
"181213";;;"Windows 7";"Rachels Experiment";"1.0";"1";"1";"1";"1";"1";"1";"2013-12-18 12:17:16.635";"";"0";"1";"1";"1";"1";"217";"216";"module.training_block6.exec-6684.GoNoGo6";;;;;;;;;;;;;;;;;;;;;;;;;;;;;;;;;;;;;;;;;;;;;;;;;;;;;;;;"1249";"2013-12-18 12:27:59.638";"31";"1";"FINISHED";"RIGHT";"success";"377";"0";"2013-12-18 12:27:58.388";"3";;;;;;;;;;;;;;;;;;;;;;;;;;;;;;;;;;;;;;;;;;;
"181213";;;"Windows 7";"Rachels Experiment";"1.0";"1";"1";"1";"1";"1";"1";"2013-12-18 12:17:16.635";"";"0";"1";"1";"1";"1";"218";"217";"module.training_block6.exec-6684.GoNoGo6";;;;;;;;;;;;;;;;;;;;;;;;;;;;;;;;;;;;;;;;;;;;;;;;;;;;;;;;"1249";"2013-12-18 12:28:02.154";"24";"1";"FINISHED";"RIGHT";"success";"374";"0";"2013-12-18 12:28:00.904";"3";;;;;;;;;;;;;;;;;;;;;;;;;;;;;;;;;;;;;;;;;;;
"181213";;;"Windows 7";"Rachels Experiment";"1.0";"1";"1";"1";"1";"1";"1";"2013-12-18 12:17:16.635";"";"0";"1";"1";"1";"1";"219";"218";"module.training_block6.exec-6684.GoNoGo6";;;;;;;;;;;;;;;;;;;;;;;;;;;;;;;;;;;;;;;;;;;;;;;;;;;;;;;;"1249";"2013-12-18 12:28:04.669";"3";"0";"FINISHED";"NONE";"success";"0";"1";"2013-12-18 12:28:03.419";"1";;;;;;;;;;;;;;;;;;;;;;;;;;;;;;;;;;;;;;;;;;;
"181213";;;"Windows 7";"Rachels Experiment";"1.0";"1";"1";"1";"1";"1";"1";"2013-12-18 12:17:16.635";"";"0";"1";"1";"1";"1";"220";"219";"module.training_block6.exec-6684.GoNoGo6";;;;;;;;;;;;;;;;;;;;;;;;;;;;;;;;;;;;;;;;;;;;;;;;;;;;;;;;"1249";"2013-12-18 12:28:07.185";"29";"1";"FINISHED";"RIGHT";"success";"359";"0";"2013-12-18 12:28:05.935";"3";;;;;;;;;;;;;;;;;;;;;;;;;;;;;;;;;;;;;;;;;;;
"181213";;;"Windows 7";"Rachels Experiment";"1.0";"1";"1";"1";"1";"1";"1";"2013-12-18 12:17:16.635";"";"0";"1";"1";"1";"1";"221";"220";"module.training_block6.exec-6684.GoNoGo6";;;;;;;;;;;;;;;;;;;;;;;;;;;;;;;;;;;;;;;;;;;;;;;;;;;;;;;;"1249";"2013-12-18 12:28:09.701";"34";"0";"FINISHED";"LEFT";"success";"451";"0";"2013-12-18 12:28:08.451";"3";;;;;;;;;;;;;;;;;;;;;;;;;;;;;;;;;;;;;;;;;;;
"181213";;;"Windows 7";"Rachels Experiment";"1.0";"1";"1";"1";"1";"1";"1";"2013-12-18 12:17:16.635";"";"0";"1";"1";"1";"1";"222";"221";"module.training_block6.exec-6684.GoNoGo6";;;;;;;;;;;;;;;;;;;;;;;;;;;;;;;;;;;;;;;;;;;;;;;;;;;;;;;;"1250";"2013-12-18 12:28:12.216";"4";"0";"FINISHED";"NONE";"success";"0";"1";"2013-12-18 12:28:10.965";"1";;;;;;;;;;;;;;;;;;;;;;;;;;;;;;;;;;;;;;;;;;;
"181213";;;"Windows 7";"Rachels Experiment";"1.0";"1";"1";"1";"1";"1";"1";"2013-12-18 12:17:16.635";"";"0";"1";"1";"1";"1";"223";"222";"module.training_block6.exec-6684.GoNoGo6";;;;;;;;;;;;;;;;;;;;;;;;;;;;;;;;;;;;;;;;;;;;;;;;;;;;;;;;"1249";"2013-12-18 12:28:14.732";"30";"1";"FINISHED";"NONE";"success";"0";"1";"2013-12-18 12:28:13.482";"3";;;;;;;;;;;;;;;;;;;;;;;;;;;;;;;;;;;;;;;;;;;
"181213";;;"Windows 7";"Rachels Experiment";"1.0";"1";"1";"1";"1";"1";"1";"2013-12-18 12:17:16.635";"";"0";"1";"1";"1";"1";"224";"223";"module.training_block6.exec-6684.GoNoGo6";;;;;;;;;;;;;;;;;;;;;;;;;;;;;;;;;;;;;;;;;;;;;;;;;;;;;;;;"1249";"2013-12-18 12:28:17.248";"32";"1";"FINISHED";"NONE";"success";"0";"1";"2013-12-18 12:28:15.998";"3";;;;;;;;;;;;;;;;;;;;;;;;;;;;;;;;;;;;;;;;;;;
"181213";;;"Windows 7";"Rachels Experiment";"1.0";"1";"1";"1";"1";"1";"1";"2013-12-18 12:17:16.635";"";"0";"1";"1";"1";"1";"225";"224";"module.training_block6.exec-6684.GoNoGo6";;;;;;;;;;;;;;;;;;;;;;;;;;;;;;;;;;;;;;;;;;;;;;;;;;;;;;;;"1250";"2013-12-18 12:28:19.764";"9";"0";"FINISHED";"LEFT";"success";"564";"0";"2013-12-18 12:28:18.513";"2";;;;;;;;;;;;;;;;;;;;;;;;;;;;;;;;;;;;;;;;;;;
"181213";;;"Windows 7";"Rachels Experiment";"1.0";"1";"1";"1";"1";"1";"1";"2013-12-18 12:17:16.635";"";"0";"1";"1";"1";"1";"226";"225";"module.training_block6.exec-6684.GoNoGo6";;;;;;;;;;;;;;;;;;;;;;;;;;;;;;;;;;;;;;;;;;;;;;;;;;;;;;;;"1249";"2013-12-18 12:28:22.279";"19";"0";"FINISHED";"NONE";"success";"0";"1";"2013-12-18 12:28:21.029";"3";;;;;;;;;;;;;;;;;;;;;;;;;;;;;;;;;;;;;;;;;;;
"181213";;;"Windows 7";"Rachels Experiment";"1.0";"1";"1";"1";"1";"1";"1";"2013-12-18 12:17:16.635";"";"0";"1";"1";"1";"1";"227";"226";"module.training_block6.exec-6684.GoNoGo6";;;;;;;;;;;;;;;;;;;;;;;;;;;;;;;;;;;;;;;;;;;;;;;;;;;;;;;;"1249";"2013-12-18 12:28:24.793";"28";"0";"FINISHED";"LEFT";"success";"414";"0";"2013-12-18 12:28:23.543";"3";;;;;;;;;;;;;;;;;;;;;;;;;;;;;;;;;;;;;;;;;;;
"181213";;;"Windows 7";"Rachels Experiment";"1.0";"1";"1";"1";"1";"1";"1";"2013-12-18 12:17:16.635";"";"0";"1";"1";"1";"1";"228";"227";"module.training_block6.exec-6684.GoNoGo6";;;;;;;;;;;;;;;;;;;;;;;;;;;;;;;;;;;;;;;;;;;;;;;;;;;;;;;;"1249";"2013-12-18 12:28:27.308";"14";"1";"FINISHED";"RIGHT";"success";"387";"0";"2013-12-18 12:28:26.058";"2";;;;;;;;;;;;;;;;;;;;;;;;;;;;;;;;;;;;;;;;;;;
"181213";;;"Windows 7";"Rachels Experiment";"1.0";"1";"1";"1";"1";"1";"1";"2013-12-18 12:17:16.635";"";"0";"1";"1";"1";"1";"229";"228";"module.training_block6.exec-6684.GoNoGo6";;;;;;;;;;;;;;;;;;;;;;;;;;;;;;;;;;;;;;;;;;;;;;;;;;;;;;;;"1249";"2013-12-18 12:28:29.823";"17";"0";"FINISHED";"LEFT";"success";"689";"0";"2013-12-18 12:28:28.573";"2";;;;;;;;;;;;;;;;;;;;;;;;;;;;;;;;;;;;;;;;;;;
"181213";;;"Windows 7";"Rachels Experiment";"1.0";"1";"1";"1";"1";"1";"1";"2013-12-18 12:17:16.635";"";"0";"1";"1";"1";"1";"230";"229";"module.training_block6.exec-6684.GoNoGo6";;;;;;;;;;;;;;;;;;;;;;;;;;;;;;;;;;;;;;;;;;;;;;;;;;;;;;;;"1249";"2013-12-18 12:28:32.337";"12";"1";"FINISHED";"RIGHT";"success";"558";"0";"2013-12-18 12:28:31.087";"2";;;;;;;;;;;;;;;;;;;;;;;;;;;;;;;;;;;;;;;;;;;
"181213";;;"Windows 7";"Rachels Experiment";"1.0";"1";"1";"1";"1";"1";"1";"2013-12-18 12:17:16.635";"";"0";"1";"1";"1";"1";"231";"230";"module.training_block6.exec-6684.GoNoGo6";;;;;;;;;;;;;;;;;;;;;;;;;;;;;;;;;;;;;;;;;;;;;;;;;;;;;;;;"1249";"2013-12-18 12:28:34.853";"22";"1";"FINISHED";"NONE";"success";"0";"1";"2013-12-18 12:28:33.603";"3";;;;;;;;;;;;;;;;;;;;;;;;;;;;;;;;;;;;;;;;;;;
"181213";;;"Windows 7";"Rachels Experiment";"1.0";"1";"1";"1";"1";"1";"1";"2013-12-18 12:17:16.635";"";"0";"1";"1";"1";"1";"232";"231";"module.training_block7.exec-3371.GoNoGo7";;;;;;;;;;;;;;;;;;;;;;;;;;;;;;;;;;;;;;;;;;;;;;;;;;;;;;;;;;;;;;;;;;;"1249";"2013-12-18 12:28:51.012";"18";"0";"FINISHED";"NONE";"success";"0";"1";"2013-12-18 12:28:49.762";"3";;;;;;;;;;;;;;;;;;;;;;;;;;;;;;;;
"181213";;;"Windows 7";"Rachels Experiment";"1.0";"1";"1";"1";"1";"1";"1";"2013-12-18 12:17:16.635";"";"0";"1";"1";"1";"1";"233";"232";"module.training_block7.exec-3371.GoNoGo7";;;;;;;;;;;;;;;;;;;;;;;;;;;;;;;;;;;;;;;;;;;;;;;;;;;;;;;;;;;;;;;;;;;"1249";"2013-12-18 12:28:53.527";"22";"1";"FINISHED";"RIGHT";"success";"241";"0";"2013-12-18 12:28:52.277";"3";;;;;;;;;;;;;;;;;;;;;;;;;;;;;;;;
"181213";;;"Windows 7";"Rachels Experiment";"1.0";"1";"1";"1";"1";"1";"1";"2013-12-18 12:17:16.635";"";"0";"1";"1";"1";"1";"234";"233";"module.training_block7.exec-3371.GoNoGo7";;;;;;;;;;;;;;;;;;;;;;;;;;;;;;;;;;;;;;;;;;;;;;;;;;;;;;;;;;;;;;;;;;;"1249";"2013-12-18 12:28:56.041";"4";"1";"FINISHED";"NONE";"success";"0";"1";"2013-12-18 12:28:54.791";"1";;;;;;;;;;;;;;;;;;;;;;;;;;;;;;;;
"181213";;;"Windows 7";"Rachels Experiment";"1.0";"1";"1";"1";"1";"1";"1";"2013-12-18 12:17:16.635";"";"0";"1";"1";"1";"1";"235";"234";"module.training_block7.exec-3371.GoNoGo7";;;;;;;;;;;;;;;;;;;;;;;;;;;;;;;;;;;;;;;;;;;;;;;;;;;;;;;;;;;;;;;;;;;"1249";"2013-12-18 12:28:58.556";"5";"0";"FINISHED";"NONE";"success";"0";"1";"2013-12-18 12:28:57.306";"1";;;;;;;;;;;;;;;;;;;;;;;;;;;;;;;;
"181213";;;"Windows 7";"Rachels Experiment";"1.0";"1";"1";"1";"1";"1";"1";"2013-12-18 12:17:16.635";"";"0";"1";"1";"1";"1";"236";"235";"module.training_block7.exec-3371.GoNoGo7";;;;;;;;;;;;;;;;;;;;;;;;;;;;;;;;;;;;;;;;;;;;;;;;;;;;;;;;;;;;;;;;;;;"1249";"2013-12-18 12:29:01.072";"3";"0";"FINISHED";"NONE";"success";"0";"1";"2013-12-18 12:28:59.822";"1";;;;;;;;;;;;;;;;;;;;;;;;;;;;;;;;
"181213";;;"Windows 7";"Rachels Experiment";"1.0";"1";"1";"1";"1";"1";"1";"2013-12-18 12:17:16.635";"";"0";"1";"1";"1";"1";"237";"236";"module.training_block7.exec-3371.GoNoGo7";;;;;;;;;;;;;;;;;;;;;;;;;;;;;;;;;;;;;;;;;;;;;;;;;;;;;;;;;;;;;;;;;;;"1249";"2013-12-18 12:29:03.586";"20";"0";"FINISHED";"NONE";"success";"0";"1";"2013-12-18 12:29:02.336";"3";;;;;;;;;;;;;;;;;;;;;;;;;;;;;;;;
"181213";;;"Windows 7";"Rachels Experiment";"1.0";"1";"1";"1";"1";"1";"1";"2013-12-18 12:17:16.635";"";"0";"1";"1";"1";"1";"238";"237";"module.training_block7.exec-3371.GoNoGo7";;;;;;;;;;;;;;;;;;;;;;;;;;;;;;;;;;;;;;;;;;;;;;;;;;;;;;;;;;;;;;;;;;;"1249";"2013-12-18 12:29:06.102";"32";"0";"FINISHED";"LEFT";"success";"497";"0";"2013-12-18 12:29:04.852";"3";;;;;;;;;;;;;;;;;;;;;;;;;;;;;;;;
"181213";;;"Windows 7";"Rachels Experiment";"1.0";"1";"1";"1";"1";"1";"1";"2013-12-18 12:17:16.635";"";"0";"1";"1";"1";"1";"239";"238";"module.training_block7.exec-3371.GoNoGo7";;;;;;;;;;;;;;;;;;;;;;;;;;;;;;;;;;;;;;;;;;;;;;;;;;;;;;;;;;;;;;;;;;;"1249";"2013-12-18 12:29:08.617";"17";"0";"FINISHED";"LEFT";"success";"407";"0";"2013-12-18 12:29:07.367";"2";;;;;;;;;;;;;;;;;;;;;;;;;;;;;;;;
"181213";;;"Windows 7";"Rachels Experiment";"1.0";"1";"1";"1";"1";"1";"1";"2013-12-18 12:17:16.635";"";"0";"1";"1";"1";"1";"240";"239";"module.training_block7.exec-3371.GoNoGo7";;;;;;;;;;;;;;;;;;;;;;;;;;;;;;;;;;;;;;;;;;;;;;;;;;;;;;;;;;;;;;;;;;;"1249";"2013-12-18 12:29:11.132";"9";"0";"FINISHED";"LEFT";"success";"539";"0";"2013-12-18 12:29:09.882";"2";;;;;;;;;;;;;;;;;;;;;;;;;;;;;;;;
"181213";;;"Windows 7";"Rachels Experiment";"1.0";"1";"1";"1";"1";"1";"1";"2013-12-18 12:17:16.635";"";"0";"1";"1";"1";"1";"241";"240";"module.training_block7.exec-3371.GoNoGo7";;;;;;;;;;;;;;;;;;;;;;;;;;;;;;;;;;;;;;;;;;;;;;;;;;;;;;;;;;;;;;;;;;;"1249";"2013-12-18 12:29:13.648";"19";"0";"FINISHED";"LEFT";"success";"407";"0";"2013-12-18 12:29:12.398";"3";;;;;;;;;;;;;;;;;;;;;;;;;;;;;;;;
"181213";;;"Windows 7";"Rachels Experiment";"1.0";"1";"1";"1";"1";"1";"1";"2013-12-18 12:17:16.635";"";"0";"1";"1";"1";"1";"242";"241";"module.training_block7.exec-3371.GoNoGo7";;;;;;;;;;;;;;;;;;;;;;;;;;;;;;;;;;;;;;;;;;;;;;;;;;;;;;;;;;;;;;;;;;;"1249";"2013-12-18 12:29:16.164";"0";"0";"FINISHED";"LEFT";"failure";"444";"1";"2013-12-18 12:29:14.914";"1";;;;;;;;;;;;;;;;;;;;;;;;;;;;;;;;
"181213";;;"Windows 7";"Rachels Experiment";"1.0";"1";"1";"1";"1";"1";"1";"2013-12-18 12:17:16.635";"";"0";"1";"1";"1";"1";"243";"242";"module.training_block7.exec-3371.GoNoGo7";;;;;;;;;;;;;;;;;;;;;;;;;;;;;;;;;;;;;;;;;;;;;;;;;;;;;;;;;;;;;;;;;;;"1249";"2013-12-18 12:29:18.679";"29";"1";"FINISHED";"RIGHT";"success";"376";"0";"2013-12-18 12:29:17.429";"3";;;;;;;;;;;;;;;;;;;;;;;;;;;;;;;;
"181213";;;"Windows 7";"Rachels Experiment";"1.0";"1";"1";"1";"1";"1";"1";"2013-12-18 12:17:16.635";"";"0";"1";"1";"1";"1";"244";"243";"module.training_block7.exec-3371.GoNoGo7";;;;;;;;;;;;;;;;;;;;;;;;;;;;;;;;;;;;;;;;;;;;;;;;;;;;;;;;;;;;;;;;;;;"1249";"2013-12-18 12:29:21.194";"15";"0";"FINISHED";"LEFT";"success";"406";"0";"2013-12-18 12:29:19.944";"2";;;;;;;;;;;;;;;;;;;;;;;;;;;;;;;;
"181213";;;"Windows 7";"Rachels Experiment";"1.0";"1";"1";"1";"1";"1";"1";"2013-12-18 12:17:16.635";"";"0";"1";"1";"1";"1";"245";"244";"module.training_block7.exec-3371.GoNoGo7";;;;;;;;;;;;;;;;;;;;;;;;;;;;;;;;;;;;;;;;;;;;;;;;;;;;;;;;;;;;;;;;;;;"1249";"2013-12-18 12:29:23.709";"2";"1";"FINISHED";"RIGHT";"failure";"410";"1";"2013-12-18 12:29:22.459";"1";;;;;;;;;;;;;;;;;;;;;;;;;;;;;;;;
"181213";;;"Windows 7";"Rachels Experiment";"1.0";"1";"1";"1";"1";"1";"1";"2013-12-18 12:17:16.635";"";"0";"1";"1";"1";"1";"246";"245";"module.training_block7.exec-3371.GoNoGo7";;;;;;;;;;;;;;;;;;;;;;;;;;;;;;;;;;;;;;;;;;;;;;;;;;;;;;;;;;;;;;;;;;;"1249";"2013-12-18 12:29:26.224";"31";"0";"FINISHED";"NONE";"success";"0";"1";"2013-12-18 12:29:24.974";"3";;;;;;;;;;;;;;;;;;;;;;;;;;;;;;;;
"181213";;;"Windows 7";"Rachels Experiment";"1.0";"1";"1";"1";"1";"1";"1";"2013-12-18 12:17:16.635";"";"0";"1";"1";"1";"1";"247";"246";"module.training_block7.exec-3371.GoNoGo7";;;;;;;;;;;;;;;;;;;;;;;;;;;;;;;;;;;;;;;;;;;;;;;;;;;;;;;;;;;;;;;;;;;"1249";"2013-12-18 12:29:28.739";"11";"0";"FINISHED";"LEFT";"success";"421";"0";"2013-12-18 12:29:27.489";"2";;;;;;;;;;;;;;;;;;;;;;;;;;;;;;;;
"181213";;;"Windows 7";"Rachels Experiment";"1.0";"1";"1";"1";"1";"1";"1";"2013-12-18 12:17:16.635";"";"0";"1";"1";"1";"1";"248";"247";"module.training_block7.exec-3371.GoNoGo7";;;;;;;;;;;;;;;;;;;;;;;;;;;;;;;;;;;;;;;;;;;;;;;;;;;;;;;;;;;;;;;;;;;"1249";"2013-12-18 12:29:31.253";"30";"0";"FINISHED";"LEFT";"success";"418";"0";"2013-12-18 12:29:30.003";"3";;;;;;;;;;;;;;;;;;;;;;;;;;;;;;;;
"181213";;;"Windows 7";"Rachels Experiment";"1.0";"1";"1";"1";"1";"1";"1";"2013-12-18 12:17:16.635";"";"0";"1";"1";"1";"1";"249";"248";"module.training_block7.exec-3371.GoNoGo7";;;;;;;;;;;;;;;;;;;;;;;;;;;;;;;;;;;;;;;;;;;;;;;;;;;;;;;;;;;;;;;;;;;"1249";"2013-12-18 12:29:33.767";"26";"0";"FINISHED";"LEFT";"failure";"656";"1";"2013-12-18 12:29:32.517";"3";;;;;;;;;;;;;;;;;;;;;;;;;;;;;;;;
"181213";;;"Windows 7";"Rachels Experiment";"1.0";"1";"1";"1";"1";"1";"1";"2013-12-18 12:17:16.635";"";"0";"1";"1";"1";"1";"250";"249";"module.training_block7.exec-3371.GoNoGo7";;;;;;;;;;;;;;;;;;;;;;;;;;;;;;;;;;;;;;;;;;;;;;;;;;;;;;;;;;;;;;;;;;;"1249";"2013-12-18 12:29:36.282";"8";"0";"FINISHED";"NONE";"success";"0";"1";"2013-12-18 12:29:35.032";"1";;;;;;;;;;;;;;;;;;;;;;;;;;;;;;;;
"181213";;;"Windows 7";"Rachels Experiment";"1.0";"1";"1";"1";"1";"1";"1";"2013-12-18 12:17:16.635";"";"0";"1";"1";"1";"1";"251";"250";"module.training_block7.exec-3371.GoNoGo7";;;;;;;;;;;;;;;;;;;;;;;;;;;;;;;;;;;;;;;;;;;;;;;;;;;;;;;;;;;;;;;;;;;"1249";"2013-12-18 12:29:38.796";"35";"1";"FINISHED";"RIGHT";"failure";"395";"1";"2013-12-18 12:29:37.546";"3";;;;;;;;;;;;;;;;;;;;;;;;;;;;;;;;
