"user.name";"user.yearOfBirth";"user.sex";"user.osName";"module.name";"module.version";"module.online.subject.code";"module.online.study.id";"module.online.module.nr";"module.online.group.nr";"session.id";"session.index";"session.startTime";"session.endTime";"session.completed";"session.node-6367.conditionType";"session.node-8593.blockOrder";"session.node-8593.IATorder";"session.node-8593.keyOrder";"trial.id";"trial.index";"trial.name";"trial.GoNoGo1.durationTime";"trial.GoNoGo1.endTime";"trial.GoNoGo1.Error Type";"trial.GoNoGo1.icon";"trial.GoNoGo1.location";"trial.GoNoGo1.outcome";"trial.GoNoGo1.response";"trial.GoNoGo1.result";"trial.GoNoGo1.RT";"trial.GoNoGo1.signal";"trial.GoNoGo1.startTime";"trial.GoNoGo1.stimulus type";"trial.GoNoGo2.durationTime";"trial.GoNoGo2.endTime";"trial.GoNoGo2.Error Type";"trial.GoNoGo2.icon";"trial.GoNoGo2.location";"trial.GoNoGo2.outcome";"trial.GoNoGo2.response";"trial.GoNoGo2.result";"trial.GoNoGo2.RT";"trial.GoNoGo2.signal";"trial.GoNoGo2.startTime";"trial.GoNoGo2.stimulus type";"trial.GoNoGo_Practice.durationTime";"trial.GoNoGo_Practice.endTime";"trial.GoNoGo_Practice.icon";"trial.GoNoGo_Practice.location";"trial.GoNoGo_Practice.outcome";"trial.GoNoGo_Practice.response";"trial.GoNoGo_Practice.result";"trial.GoNoGo_Practice.RT";"trial.GoNoGo_Practice.signal";"trial.GoNoGo_Practice.startTime";"trial.GoNoGo_Practice.stimulus type";"trial.GoNoGo_Tutorial.durationTime";"trial.GoNoGo_Tutorial.endTime";"trial.GoNoGo_Tutorial.icon";"trial.GoNoGo_Tutorial.location";"trial.GoNoGo_Tutorial.outcome";"trial.GoNoGo_Tutorial.response";"trial.GoNoGo_Tutorial.result";"trial.GoNoGo_Tutorial.RT";"trial.GoNoGo_Tutorial.signal";"trial.GoNoGo_Tutorial.startTime"
"lucky284";"1992";;"Mac OS X";"Rachel's Experiment (SCIAT)";"1.0";"1";"1";"1";"1";"1";"1";"2014-09-11 11:17:12.420";"2014-09-11 11:25:27.145";"1";"1";"1";"1";"1";"1";"0";"module.GoNoGotutorial.exec-9793.GoNoGo_Tutorial";;;;;;;;;;;;;;;;;;;;;;;;;;;;;;;;;;;;"4002";"2014-09-11 11:18:19.670";"leftResponse";"0";"FINISHED";"LEFT";"success";"1932";"0";"2014-09-11 11:18:15.668"
"lucky284";"1992";;"Mac OS X";"Rachel's Experiment (SCIAT)";"1.0";"1";"1";"1";"1";"1";"1";"2014-09-11 11:17:12.420";"2014-09-11 11:25:27.145";"1";"1";"1";"1";"1";"2";"1";"module.GoNoGotutorial.exec-9793.GoNoGo_Tutorial";;;;;;;;;;;;;;;;;;;;;;;;;;;;;;;;;;;;"4001";"2014-09-11 11:18:25.000";"rightResponse";"1";"FINISHED";"RIGHT";"success";"913";"0";"2014-09-11 11:18:20.999"
"lucky284";"1992";;"Mac OS X";"Rachel's Experiment (SCIAT)";"1.0";"1";"1";"1";"1";"1";"1";"2014-09-11 11:17:12.420";"2014-09-11 11:25:27.145";"1";"1";"1";"1";"1";"3";"2";"module.GoNoGotutorial.exec-9793.GoNoGo_Tutorial";;;;;;;;;;;;;;;;;;;;;;;;;;;;;;;;;;;;"4001";"2014-09-11 11:18:30.310";"signalResponse";"0";"FINISHED";"NONE";"success";"0";"1";"2014-09-11 11:18:26.309"
"lucky284";"1992";;"Mac OS X";"Rachel's Experiment (SCIAT)";"1.0";"1";"1";"1";"1";"1";"1";"2014-09-11 11:17:12.420";"2014-09-11 11:25:27.145";"1";"1";"1";"1";"1";"4";"3";"module.GoNoGopractice.exec-8840.GoNoGo_Practice";;;;;;;;;;;;;;;;;;;;;;;;;"1962";"2014-09-11 11:18:35.788";"18";"0";"FINISHED";"LEFT";"success";"452";"0";"2014-09-11 11:18:33.826";"3";;;;;;;;;;
"lucky284";"1992";;"Mac OS X";"Rachel's Experiment (SCIAT)";"1.0";"1";"1";"1";"1";"1";"1";"2014-09-11 11:17:12.420";"2014-09-11 11:25:27.145";"1";"1";"1";"1";"1";"5";"4";"module.GoNoGopractice.exec-8840.GoNoGo_Practice";;;;;;;;;;;;;;;;;;;;;;;;;"1954";"2014-09-11 11:18:39.049";"21";"1";"FINISHED";"RIGHT";"success";"438";"0";"2014-09-11 11:18:37.095";"3";;;;;;;;;;
"lucky284";"1992";;"Mac OS X";"Rachel's Experiment (SCIAT)";"1.0";"1";"1";"1";"1";"1";"1";"2014-09-11 11:17:12.420";"2014-09-11 11:25:27.145";"1";"1";"1";"1";"1";"6";"5";"module.GoNoGopractice.exec-8840.GoNoGo_Practice";;;;;;;;;;;;;;;;;;;;;;;;;"1960";"2014-09-11 11:18:42.316";"14";"1";"FINISHED";"RIGHT";"failure";"431";"1";"2014-09-11 11:18:40.356";"2";;;;;;;;;;
"lucky284";"1992";;"Mac OS X";"Rachel's Experiment (SCIAT)";"1.0";"1";"1";"1";"1";"1";"1";"2014-09-11 11:17:12.420";"2014-09-11 11:25:27.145";"1";"1";"1";"1";"1";"7";"6";"module.GoNoGopractice.exec-8840.GoNoGo_Practice";;;;;;;;;;;;;;;;;;;;;;;;;"1953";"2014-09-11 11:18:45.580";"26";"0";"FINISHED";"LEFT";"success";"594";"0";"2014-09-11 11:18:43.626";"3";;;;;;;;;;
"lucky284";"1992";;"Mac OS X";"Rachel's Experiment (SCIAT)";"1.0";"1";"1";"1";"1";"1";"1";"2014-09-11 11:17:12.420";"2014-09-11 11:25:27.145";"1";"1";"1";"1";"1";"8";"7";"module.GoNoGopractice.exec-8840.GoNoGo_Practice";;;;;;;;;;;;;;;;;;;;;;;;;"1953";"2014-09-11 11:18:48.840";"2";"0";"FINISHED";"LEFT";"success";"485";"0";"2014-09-11 11:18:46.886";"1";;;;;;;;;;
"lucky284";"1992";;"Mac OS X";"Rachel's Experiment (SCIAT)";"1.0";"1";"1";"1";"1";"1";"1";"2014-09-11 11:17:12.420";"2014-09-11 11:25:27.145";"1";"1";"1";"1";"1";"9";"8";"module.GoNoGopractice.exec-8840.GoNoGo_Practice";;;;;;;;;;;;;;;;;;;;;;;;;"1954";"2014-09-11 11:18:52.100";"30";"0";"FINISHED";"LEFT";"failure";"497";"1";"2014-09-11 11:18:50.146";"3";;;;;;;;;;
"lucky284";"1992";;"Mac OS X";"Rachel's Experiment (SCIAT)";"1.0";"1";"1";"1";"1";"1";"1";"2014-09-11 11:17:12.420";"2014-09-11 11:25:27.145";"1";"1";"1";"1";"1";"10";"9";"module.GoNoGopractice.exec-8840.GoNoGo_Practice";;;;;;;;;;;;;;;;;;;;;;;;;"1954";"2014-09-11 11:18:55.394";"6";"1";"FINISHED";"RIGHT";"failure";"395";"1";"2014-09-11 11:18:53.440";"1";;;;;;;;;;
"lucky284";"1992";;"Mac OS X";"Rachel's Experiment (SCIAT)";"1.0";"1";"1";"1";"1";"1";"1";"2014-09-11 11:17:12.420";"2014-09-11 11:25:27.145";"1";"1";"1";"1";"1";"11";"10";"module.GoNoGopractice.exec-8840.GoNoGo_Practice";;;;;;;;;;;;;;;;;;;;;;;;;"1954";"2014-09-11 11:18:58.661";"34";"0";"FINISHED";"LEFT";"success";"552";"0";"2014-09-11 11:18:56.706";"3";;;;;;;;;;
"lucky284";"1992";;"Mac OS X";"Rachel's Experiment (SCIAT)";"1.0";"1";"1";"1";"1";"1";"1";"2014-09-11 11:17:12.420";"2014-09-11 11:25:27.145";"1";"1";"1";"1";"1";"12";"11";"module.GoNoGopractice.exec-8840.GoNoGo_Practice";;;;;;;;;;;;;;;;;;;;;;;;;"1953";"2014-09-11 11:19:01.918";"23";"1";"FINISHED";"RIGHT";"success";"317";"0";"2014-09-11 11:18:59.964";"3";;;;;;;;;;
"lucky284";"1992";;"Mac OS X";"Rachel's Experiment (SCIAT)";"1.0";"1";"1";"1";"1";"1";"1";"2014-09-11 11:17:12.420";"2014-09-11 11:25:27.145";"1";"1";"1";"1";"1";"13";"12";"module.GoNoGopractice.exec-8840.GoNoGo_Practice";;;;;;;;;;;;;;;;;;;;;;;;;"1954";"2014-09-11 11:19:05.170";"13";"0";"FINISHED";"LEFT";"failure";"370";"1";"2014-09-11 11:19:03.216";"2";;;;;;;;;;
"lucky284";"1992";;"Mac OS X";"Rachel's Experiment (SCIAT)";"1.0";"1";"1";"1";"1";"1";"1";"2014-09-11 11:17:12.420";"2014-09-11 11:25:27.145";"1";"1";"1";"1";"1";"14";"13";"module.GoNoGopractice.exec-8840.GoNoGo_Practice";;;;;;;;;;;;;;;;;;;;;;;;;"1953";"2014-09-11 11:19:08.427";"3";"1";"FINISHED";"RIGHT";"success";"455";"0";"2014-09-11 11:19:06.473";"1";;;;;;;;;;
"lucky284";"1992";;"Mac OS X";"Rachel's Experiment (SCIAT)";"1.0";"1";"1";"1";"1";"1";"1";"2014-09-11 11:17:12.420";"2014-09-11 11:25:27.145";"1";"1";"1";"1";"1";"15";"14";"module.GoNoGopractice.exec-8840.GoNoGo_Practice";;;;;;;;;;;;;;;;;;;;;;;;;"1954";"2014-09-11 11:19:11.687";"27";"1";"FINISHED";"RIGHT";"failure";"388";"1";"2014-09-11 11:19:09.732";"3";;;;;;;;;;
"lucky284";"1992";;"Mac OS X";"Rachel's Experiment (SCIAT)";"1.0";"1";"1";"1";"1";"1";"1";"2014-09-11 11:17:12.420";"2014-09-11 11:25:27.145";"1";"1";"1";"1";"1";"16";"15";"module.training_block1.exec-1355.GoNoGo1";"1252";"2014-09-11 11:23:32.620";"NST_correctLoc";"12";"1";"FINISHED";"RIGHT";"success";"620";"0";"2014-09-11 11:23:31.367";"2";;;;;;;;;;;;;;;;;;;;;;;;;;;;;;;;;
"lucky284";"1992";;"Mac OS X";"Rachel's Experiment (SCIAT)";"1.0";"1";"1";"1";"1";"1";"1";"2014-09-11 11:17:12.420";"2014-09-11 11:25:27.145";"1";"1";"1";"1";"1";"17";"16";"module.training_block1.exec-1355.GoNoGo1";"1250";"2014-09-11 11:23:35.167";"NST_correctLoc";"26";"1";"FINISHED";"RIGHT";"success";"383";"0";"2014-09-11 11:23:33.916";"3";;;;;;;;;;;;;;;;;;;;;;;;;;;;;;;;;
"lucky284";"1992";;"Mac OS X";"Rachel's Experiment (SCIAT)";"1.0";"1";"1";"1";"1";"1";"1";"2014-09-11 11:17:12.420";"2014-09-11 11:25:27.145";"1";"1";"1";"1";"1";"18";"17";"module.training_block1.exec-1355.GoNoGo1";"1250";"2014-09-11 11:23:37.714";"ST_failedStop";"27";"1";"FINISHED";"RIGHT";"failure";"397";"1";"2014-09-11 11:23:36.463";"3";;;;;;;;;;;;;;;;;;;;;;;;;;;;;;;;;
"lucky284";"1992";;"Mac OS X";"Rachel's Experiment (SCIAT)";"1.0";"1";"1";"1";"1";"1";"1";"2014-09-11 11:17:12.420";"2014-09-11 11:25:27.145";"1";"1";"1";"1";"1";"19";"18";"module.training_block1.exec-1355.GoNoGo1";"1250";"2014-09-11 11:23:40.269";"ST_failedStop";"22";"0";"FINISHED";"LEFT";"failure";"377";"1";"2014-09-11 11:23:39.019";"3";;;;;;;;;;;;;;;;;;;;;;;;;;;;;;;;;
"lucky284";"1992";;"Mac OS X";"Rachel's Experiment (SCIAT)";"1.0";"1";"1";"1";"1";"1";"1";"2014-09-11 11:17:12.420";"2014-09-11 11:25:27.145";"1";"1";"1";"1";"1";"20";"19";"module.training_block1.exec-1355.GoNoGo1";"1250";"2014-09-11 11:23:42.821";"ST_failedStop";"33";"1";"FINISHED";"RIGHT";"failure";"297";"1";"2014-09-11 11:23:41.570";"3";;;;;;;;;;;;;;;;;;;;;;;;;;;;;;;;;
"lucky284";"1992";;"Mac OS X";"Rachel's Experiment (SCIAT)";"1.0";"1";"1";"1";"1";"1";"1";"2014-09-11 11:17:12.420";"2014-09-11 11:25:27.145";"1";"1";"1";"1";"1";"21";"20";"module.training_block1.exec-1355.GoNoGo1";"1250";"2014-09-11 11:23:45.370";"NST_correctLoc";"23";"0";"FINISHED";"LEFT";"success";"389";"0";"2014-09-11 11:23:44.119";"3";;;;;;;;;;;;;;;;;;;;;;;;;;;;;;;;;
"lucky284";"1992";;"Mac OS X";"Rachel's Experiment (SCIAT)";"1.0";"1";"1";"1";"1";"1";"1";"2014-09-11 11:17:12.420";"2014-09-11 11:25:27.145";"1";"1";"1";"1";"1";"22";"21";"module.training_block1.exec-1355.GoNoGo1";"1250";"2014-09-11 11:23:47.931";"NST_correctLoc";"16";"1";"FINISHED";"RIGHT";"success";"282";"0";"2014-09-11 11:23:46.681";"2";;;;;;;;;;;;;;;;;;;;;;;;;;;;;;;;;
"lucky284";"1992";;"Mac OS X";"Rachel's Experiment (SCIAT)";"1.0";"1";"1";"1";"1";"1";"1";"2014-09-11 11:17:12.420";"2014-09-11 11:25:27.145";"1";"1";"1";"1";"1";"23";"22";"module.training_block1.exec-1355.GoNoGo1";"1249";"2014-09-11 11:23:50.478";"ST_failedStop";"2";"1";"FINISHED";"RIGHT";"failure";"391";"1";"2014-09-11 11:23:49.228";"1";;;;;;;;;;;;;;;;;;;;;;;;;;;;;;;;;
"lucky284";"1992";;"Mac OS X";"Rachel's Experiment (SCIAT)";"1.0";"1";"1";"1";"1";"1";"1";"2014-09-11 11:17:12.420";"2014-09-11 11:25:27.145";"1";"1";"1";"1";"1";"24";"23";"module.training_block1.exec-1355.GoNoGo1";"1250";"2014-09-11 11:23:53.033";"NST_correctLoc";"35";"1";"FINISHED";"RIGHT";"success";"365";"0";"2014-09-11 11:23:51.782";"3";;;;;;;;;;;;;;;;;;;;;;;;;;;;;;;;;
"lucky284";"1992";;"Mac OS X";"Rachel's Experiment (SCIAT)";"1.0";"1";"1";"1";"1";"1";"1";"2014-09-11 11:17:12.420";"2014-09-11 11:25:27.145";"1";"1";"1";"1";"1";"25";"24";"module.training_block1.exec-1355.GoNoGo1";"1250";"2014-09-11 11:23:55.591";"NST_correctLoc";"17";"1";"FINISHED";"RIGHT";"success";"304";"0";"2014-09-11 11:23:54.340";"2";;;;;;;;;;;;;;;;;;;;;;;;;;;;;;;;;
"lucky284";"1992";;"Mac OS X";"Rachel's Experiment (SCIAT)";"1.0";"1";"1";"1";"1";"1";"1";"2014-09-11 11:17:12.420";"2014-09-11 11:25:27.145";"1";"1";"1";"1";"1";"26";"25";"module.training_block1.exec-1355.GoNoGo1";"1250";"2014-09-11 11:23:58.141";"ST_failedStop";"4";"1";"FINISHED";"RIGHT";"failure";"353";"1";"2014-09-11 11:23:56.890";"1";;;;;;;;;;;;;;;;;;;;;;;;;;;;;;;;;
"lucky284";"1992";;"Mac OS X";"Rachel's Experiment (SCIAT)";"1.0";"1";"1";"1";"1";"1";"1";"2014-09-11 11:17:12.420";"2014-09-11 11:25:27.145";"1";"1";"1";"1";"1";"27";"26";"module.training_block1.exec-1355.GoNoGo1";"1250";"2014-09-11 11:24:00.688";"NST_correctLoc";"34";"0";"FINISHED";"LEFT";"success";"366";"0";"2014-09-11 11:23:59.438";"3";;;;;;;;;;;;;;;;;;;;;;;;;;;;;;;;;
"lucky284";"1992";;"Mac OS X";"Rachel's Experiment (SCIAT)";"1.0";"1";"1";"1";"1";"1";"1";"2014-09-11 11:17:12.420";"2014-09-11 11:25:27.145";"1";"1";"1";"1";"1";"28";"27";"module.training_block1.exec-1355.GoNoGo1";"1250";"2014-09-11 11:24:03.237";"ST_failedStop";"3";"0";"FINISHED";"LEFT";"failure";"369";"1";"2014-09-11 11:24:01.987";"1";;;;;;;;;;;;;;;;;;;;;;;;;;;;;;;;;
"lucky284";"1992";;"Mac OS X";"Rachel's Experiment (SCIAT)";"1.0";"1";"1";"1";"1";"1";"1";"2014-09-11 11:17:12.420";"2014-09-11 11:25:27.145";"1";"1";"1";"1";"1";"29";"28";"module.training_block1.exec-1355.GoNoGo1";"1251";"2014-09-11 11:24:05.792";"ST_failedStop";"7";"1";"FINISHED";"RIGHT";"failure";"326";"1";"2014-09-11 11:24:04.541";"1";;;;;;;;;;;;;;;;;;;;;;;;;;;;;;;;;
"lucky284";"1992";;"Mac OS X";"Rachel's Experiment (SCIAT)";"1.0";"1";"1";"1";"1";"1";"1";"2014-09-11 11:17:12.420";"2014-09-11 11:25:27.145";"1";"1";"1";"1";"1";"30";"29";"module.training_block1.exec-1355.GoNoGo1";"1250";"2014-09-11 11:24:08.344";"ST_failedStop";"20";"0";"FINISHED";"LEFT";"failure";"287";"1";"2014-09-11 11:24:07.093";"3";;;;;;;;;;;;;;;;;;;;;;;;;;;;;;;;;
"lucky284";"1992";;"Mac OS X";"Rachel's Experiment (SCIAT)";"1.0";"1";"1";"1";"1";"1";"1";"2014-09-11 11:17:12.420";"2014-09-11 11:25:27.145";"1";"1";"1";"1";"1";"31";"30";"module.training_block1.exec-1355.GoNoGo1";"1250";"2014-09-11 11:24:10.894";"NST_miss";"24";"0";"FINISHED";"NONE";"failure";"0";"0";"2014-09-11 11:24:09.643";"3";;;;;;;;;;;;;;;;;;;;;;;;;;;;;;;;;
"lucky284";"1992";;"Mac OS X";"Rachel's Experiment (SCIAT)";"1.0";"1";"1";"1";"1";"1";"1";"2014-09-11 11:17:12.420";"2014-09-11 11:25:27.145";"1";"1";"1";"1";"1";"32";"31";"module.training_block1.exec-1355.GoNoGo1";"1250";"2014-09-11 11:24:13.448";"ST_failedStop";"32";"0";"FINISHED";"LEFT";"failure";"374";"1";"2014-09-11 11:24:12.198";"3";;;;;;;;;;;;;;;;;;;;;;;;;;;;;;;;;
"lucky284";"1992";;"Mac OS X";"Rachel's Experiment (SCIAT)";"1.0";"1";"1";"1";"1";"1";"1";"2014-09-11 11:17:12.420";"2014-09-11 11:25:27.145";"1";"1";"1";"1";"1";"33";"32";"module.training_block1.exec-1355.GoNoGo1";"1250";"2014-09-11 11:24:15.999";"ST_failedStop";"28";"0";"FINISHED";"LEFT";"failure";"368";"1";"2014-09-11 11:24:14.748";"3";;;;;;;;;;;;;;;;;;;;;;;;;;;;;;;;;
"lucky284";"1992";;"Mac OS X";"Rachel's Experiment (SCIAT)";"1.0";"1";"1";"1";"1";"1";"1";"2014-09-11 11:17:12.420";"2014-09-11 11:25:27.145";"1";"1";"1";"1";"1";"34";"33";"module.training_block1.exec-1355.GoNoGo1";"1250";"2014-09-11 11:24:18.544";"NST_correctLoc";"14";"0";"FINISHED";"LEFT";"success";"383";"0";"2014-09-11 11:24:17.294";"2";;;;;;;;;;;;;;;;;;;;;;;;;;;;;;;;;
"lucky284";"1992";;"Mac OS X";"Rachel's Experiment (SCIAT)";"1.0";"1";"1";"1";"1";"1";"1";"2014-09-11 11:17:12.420";"2014-09-11 11:25:27.145";"1";"1";"1";"1";"1";"35";"34";"module.training_block1.exec-1355.GoNoGo1";"1250";"2014-09-11 11:24:21.097";"NST_correctLoc";"15";"0";"FINISHED";"LEFT";"success";"374";"0";"2014-09-11 11:24:19.846";"2";;;;;;;;;;;;;;;;;;;;;;;;;;;;;;;;;
"lucky284";"1992";;"Mac OS X";"Rachel's Experiment (SCIAT)";"1.0";"1";"1";"1";"1";"1";"1";"2014-09-11 11:17:12.420";"2014-09-11 11:25:27.145";"1";"1";"1";"1";"1";"36";"35";"module.training_block1.exec-1355.GoNoGo1";"1250";"2014-09-11 11:24:23.648";"ST_failedStop";"5";"1";"FINISHED";"RIGHT";"failure";"359";"1";"2014-09-11 11:24:22.397";"1";;;;;;;;;;;;;;;;;;;;;;;;;;;;;;;;;
"lucky284";"1992";;"Mac OS X";"Rachel's Experiment (SCIAT)";"1.0";"1";"1";"1";"1";"1";"1";"2014-09-11 11:17:12.420";"2014-09-11 11:25:27.145";"1";"1";"1";"1";"1";"37";"36";"module.training_block1.exec-1355.GoNoGo1";"1250";"2014-09-11 11:24:26.213";"ST_failedStop";"0";"1";"FINISHED";"RIGHT";"failure";"362";"1";"2014-09-11 11:24:24.962";"1";;;;;;;;;;;;;;;;;;;;;;;;;;;;;;;;;
"lucky284";"1992";;"Mac OS X";"Rachel's Experiment (SCIAT)";"1.0";"1";"1";"1";"1";"1";"1";"2014-09-11 11:17:12.420";"2014-09-11 11:25:27.145";"1";"1";"1";"1";"1";"38";"37";"module.training_block1.exec-1355.GoNoGo1";"1250";"2014-09-11 11:24:28.764";"NST_correctLoc";"10";"1";"FINISHED";"RIGHT";"success";"371";"0";"2014-09-11 11:24:27.513";"2";;;;;;;;;;;;;;;;;;;;;;;;;;;;;;;;;
"lucky284";"1992";;"Mac OS X";"Rachel's Experiment (SCIAT)";"1.0";"1";"1";"1";"1";"1";"1";"2014-09-11 11:17:12.420";"2014-09-11 11:25:27.145";"1";"1";"1";"1";"1";"39";"38";"module.training_block1.exec-1355.GoNoGo1";"1250";"2014-09-11 11:24:31.326";"NST_correctLoc";"25";"0";"FINISHED";"LEFT";"success";"426";"0";"2014-09-11 11:24:30.075";"3";;;;;;;;;;;;;;;;;;;;;;;;;;;;;;;;;
"lucky284";"1992";;"Mac OS X";"Rachel's Experiment (SCIAT)";"1.0";"1";"1";"1";"1";"1";"1";"2014-09-11 11:17:12.420";"2014-09-11 11:25:27.145";"1";"1";"1";"1";"1";"40";"39";"module.training_block1.exec-1355.GoNoGo1";"1250";"2014-09-11 11:24:33.877";"ST_failedStop";"19";"0";"FINISHED";"LEFT";"failure";"506";"1";"2014-09-11 11:24:32.627";"3";;;;;;;;;;;;;;;;;;;;;;;;;;;;;;;;;
"lucky284";"1992";;"Mac OS X";"Rachel's Experiment (SCIAT)";"1.0";"1";"1";"1";"1";"1";"1";"2014-09-11 11:17:12.420";"2014-09-11 11:25:27.145";"1";"1";"1";"1";"1";"41";"40";"module.training_block1.exec-1355.GoNoGo1";"1250";"2014-09-11 11:24:36.442";"NST_correctLoc";"13";"1";"FINISHED";"RIGHT";"success";"461";"0";"2014-09-11 11:24:35.192";"2";;;;;;;;;;;;;;;;;;;;;;;;;;;;;;;;;
"lucky284";"1992";;"Mac OS X";"Rachel's Experiment (SCIAT)";"1.0";"1";"1";"1";"1";"1";"1";"2014-09-11 11:17:12.420";"2014-09-11 11:25:27.145";"1";"1";"1";"1";"1";"42";"41";"module.training_block1.exec-1355.GoNoGo1";"1250";"2014-09-11 11:24:38.991";"ST_failedStop";"6";"1";"FINISHED";"RIGHT";"failure";"456";"1";"2014-09-11 11:24:37.741";"1";;;;;;;;;;;;;;;;;;;;;;;;;;;;;;;;;
"lucky284";"1992";;"Mac OS X";"Rachel's Experiment (SCIAT)";"1.0";"1";"1";"1";"1";"1";"1";"2014-09-11 11:17:12.420";"2014-09-11 11:25:27.145";"1";"1";"1";"1";"1";"43";"42";"module.training_block1.exec-1355.GoNoGo1";"1250";"2014-09-11 11:24:41.547";"NST_correctLoc";"31";"1";"FINISHED";"RIGHT";"success";"413";"0";"2014-09-11 11:24:40.296";"3";;;;;;;;;;;;;;;;;;;;;;;;;;;;;;;;;
"lucky284";"1992";;"Mac OS X";"Rachel's Experiment (SCIAT)";"1.0";"1";"1";"1";"1";"1";"1";"2014-09-11 11:17:12.420";"2014-09-11 11:25:27.145";"1";"1";"1";"1";"1";"44";"43";"module.training_block1.exec-1355.GoNoGo1";"1250";"2014-09-11 11:24:44.095";"ST_failedStop";"18";"0";"FINISHED";"LEFT";"failure";"353";"1";"2014-09-11 11:24:42.844";"3";;;;;;;;;;;;;;;;;;;;;;;;;;;;;;;;;
"lucky284";"1992";;"Mac OS X";"Rachel's Experiment (SCIAT)";"1.0";"1";"1";"1";"1";"1";"1";"2014-09-11 11:17:12.420";"2014-09-11 11:25:27.145";"1";"1";"1";"1";"1";"45";"44";"module.training_block1.exec-1355.GoNoGo1";"1250";"2014-09-11 11:24:46.638";"NST_correctLoc";"30";"1";"FINISHED";"RIGHT";"success";"289";"0";"2014-09-11 11:24:45.388";"3";;;;;;;;;;;;;;;;;;;;;;;;;;;;;;;;;
"lucky284";"1992";;"Mac OS X";"Rachel's Experiment (SCIAT)";"1.0";"1";"1";"1";"1";"1";"1";"2014-09-11 11:17:12.420";"2014-09-11 11:25:27.145";"1";"1";"1";"1";"1";"46";"45";"module.training_block1.exec-1355.GoNoGo1";"1249";"2014-09-11 11:24:49.191";"NST_correctLoc";"29";"1";"FINISHED";"RIGHT";"success";"327";"0";"2014-09-11 11:24:47.941";"3";;;;;;;;;;;;;;;;;;;;;;;;;;;;;;;;;
"lucky284";"1992";;"Mac OS X";"Rachel's Experiment (SCIAT)";"1.0";"1";"1";"1";"1";"1";"1";"2014-09-11 11:17:12.420";"2014-09-11 11:25:27.145";"1";"1";"1";"1";"1";"47";"46";"module.training_block1.exec-1355.GoNoGo1";"1250";"2014-09-11 11:24:51.743";"ST_failedStop";"8";"0";"FINISHED";"LEFT";"failure";"265";"1";"2014-09-11 11:24:50.492";"1";;;;;;;;;;;;;;;;;;;;;;;;;;;;;;;;;
"lucky284";"1992";;"Mac OS X";"Rachel's Experiment (SCIAT)";"1.0";"1";"1";"1";"1";"1";"1";"2014-09-11 11:17:12.420";"2014-09-11 11:25:27.145";"1";"1";"1";"1";"1";"48";"47";"module.training_block1.exec-1355.GoNoGo1";"1250";"2014-09-11 11:24:54.290";"NST_correctLoc";"11";"1";"FINISHED";"RIGHT";"success";"285";"0";"2014-09-11 11:24:53.040";"2";;;;;;;;;;;;;;;;;;;;;;;;;;;;;;;;;
"lucky284";"1992";;"Mac OS X";"Rachel's Experiment (SCIAT)";"1.0";"1";"1";"1";"1";"1";"1";"2014-09-11 11:17:12.420";"2014-09-11 11:25:27.145";"1";"1";"1";"1";"1";"49";"48";"module.training_block1.exec-1355.GoNoGo1";"1250";"2014-09-11 11:24:56.841";"ST_failedStop";"1";"0";"FINISHED";"LEFT";"failure";"303";"1";"2014-09-11 11:24:55.590";"1";;;;;;;;;;;;;;;;;;;;;;;;;;;;;;;;;
"lucky284";"1992";;"Mac OS X";"Rachel's Experiment (SCIAT)";"1.0";"1";"1";"1";"1";"1";"1";"2014-09-11 11:17:12.420";"2014-09-11 11:25:27.145";"1";"1";"1";"1";"1";"50";"49";"module.training_block1.exec-1355.GoNoGo1";"1250";"2014-09-11 11:24:59.386";"ST_failedStop";"21";"0";"FINISHED";"LEFT";"failure";"398";"1";"2014-09-11 11:24:58.135";"3";;;;;;;;;;;;;;;;;;;;;;;;;;;;;;;;;
"lucky284";"1992";;"Mac OS X";"Rachel's Experiment (SCIAT)";"1.0";"1";"1";"1";"1";"1";"1";"2014-09-11 11:17:12.420";"2014-09-11 11:25:27.145";"1";"1";"1";"1";"1";"51";"50";"module.training_block1.exec-1355.GoNoGo1";"1250";"2014-09-11 11:25:01.946";"NST_correctLoc";"9";"1";"FINISHED";"RIGHT";"success";"326";"0";"2014-09-11 11:25:00.696";"2";;;;;;;;;;;;;;;;;;;;;;;;;;;;;;;;;
"lucky284";"1992";;"Mac OS X";"Rachel's Experiment (SCIAT)";"1.0";"1";"1";"1";"1";"1";"1";"2014-09-11 11:17:12.420";"2014-09-11 11:25:27.145";"1";"1";"1";"1";"1";"52";"51";"module.training_block2.exec-5005.GoNoGo2";;;;;;;;;;;;;"1250";"2014-09-11 11:25:12.929";"ST_failedStop";"27";"1";"FINISHED";"RIGHT";"failure";"415";"1";"2014-09-11 11:25:11.679";"3";;;;;;;;;;;;;;;;;;;;;
"lucky284";"1992";;"Mac OS X";"Rachel's Experiment (SCIAT)";"1.0";"1";"1";"1";"1";"1";"1";"2014-09-11 11:17:12.420";"2014-09-11 11:25:27.145";"1";"1";"1";"1";"1";"53";"52";"module.training_block2.exec-5005.GoNoGo2";;;;;;;;;;;;;"1250";"2014-09-11 11:25:15.474";"NST_correctLoc";"15";"0";"FINISHED";"LEFT";"success";"334";"0";"2014-09-11 11:25:14.223";"2";;;;;;;;;;;;;;;;;;;;;
"lucky284";"1992";;"Mac OS X";"Rachel's Experiment (SCIAT)";"1.0";"1";"1";"1";"1";"1";"1";"2014-09-11 11:17:12.420";"2014-09-11 11:25:27.145";"1";"1";"1";"1";"1";"54";"53";"module.training_block2.exec-5005.GoNoGo2";;;;;;;;;;;;;"1250";"2014-09-11 11:25:18.015";"NST_correctLoc";"11";"1";"FINISHED";"RIGHT";"success";"289";"0";"2014-09-11 11:25:16.765";"2";;;;;;;;;;;;;;;;;;;;;
"lucky284";"1992";;"Mac OS X";"Rachel's Experiment (SCIAT)";"1.0";"1";"1";"1";"1";"1";"1";"2014-09-11 11:17:12.420";"2014-09-11 11:25:27.145";"1";"1";"1";"1";"1";"55";"54";"module.training_block2.exec-5005.GoNoGo2";;;;;;;;;;;;;"1250";"2014-09-11 11:25:20.559";"ST_failedStop";"23";"1";"FINISHED";"RIGHT";"failure";"385";"1";"2014-09-11 11:25:19.309";"3";;;;;;;;;;;;;;;;;;;;;
"lucky284";"1992";;"Mac OS X";"Rachel's Experiment (SCIAT)";"1.0";"1";"1";"1";"1";"1";"1";"2014-09-11 11:17:12.420";"2014-09-11 11:25:27.145";"1";"1";"1";"1";"1";"56";"55";"module.training_block2.exec-5005.GoNoGo2";;;;;;;;;;;;;"1251";"2014-09-11 11:25:23.123";"NST_correctLoc";"25";"0";"FINISHED";"LEFT";"success";"454";"0";"2014-09-11 11:25:21.872";"3";;;;;;;;;;;;;;;;;;;;;
"lucky284";"1992";;"Mac OS X";"Rachel's Experiment (SCIAT)";"1.0";"1";"1";"1";"1";"1";"1";"2014-09-11 11:17:12.420";"2014-09-11 11:25:27.145";"1";"1";"1";"1";"1";"57";"56";"module.training_block2.exec-5005.GoNoGo2";;;;;;;;;;;;;"1250";"2014-09-11 11:25:25.673";"ST_failedStop";"5";"0";"FINISHED";"LEFT";"failure";"432";"1";"2014-09-11 11:25:24.422";"1";;;;;;;;;;;;;;;;;;;;;
"lucky284";"1992";;"Mac OS X";"Rachel's Experiment (SCIAT)";"1.0";"1";"1";"1";"1";"1";"1";"2014-09-11 11:17:12.420";"2014-09-11 11:25:27.145";"1";"1";"1";"1";"1";"58";"57";"module.training_block2.exec-5005.GoNoGo2";;;;;;;;;;;;;;;;;;;;;;;;;;;;;;;;;;;;;;;;;;;;;
