"user.name";"user.yearOfBirth";"user.sex";"user.osName";"module.name";"module.version";"module.online.subject.code";"module.online.study.id";"module.online.module.nr";"module.online.group.nr";"session.id";"session.index";"session.startTime";"session.endTime";"session.completed";"session.node-5165.conditionType";"session.node-7257.blockOrder";"session.node-7257.IATorder";"session.node-7257.keyOrder";"trial.id";"trial.index";"trial.name";"trial.GoNoGo1.durationTime";"trial.GoNoGo1.endTime";"trial.GoNoGo1.Error Type";"trial.GoNoGo1.icon";"trial.GoNoGo1.location";"trial.GoNoGo1.outcome";"trial.GoNoGo1.response";"trial.GoNoGo1.result";"trial.GoNoGo1.RT";"trial.GoNoGo1.signal";"trial.GoNoGo1.startTime";"trial.GoNoGo1.stimulus type";"trial.GoNoGo2.durationTime";"trial.GoNoGo2.endTime";"trial.GoNoGo2.Error Type";"trial.GoNoGo2.icon";"trial.GoNoGo2.location";"trial.GoNoGo2.outcome";"trial.GoNoGo2.response";"trial.GoNoGo2.result";"trial.GoNoGo2.RT";"trial.GoNoGo2.signal";"trial.GoNoGo2.startTime";"trial.GoNoGo2.stimulus type";"trial.GoNoGo3.durationTime";"trial.GoNoGo3.endTime";"trial.GoNoGo3.Error Type";"trial.GoNoGo3.icon";"trial.GoNoGo3.location";"trial.GoNoGo3.outcome";"trial.GoNoGo3.response";"trial.GoNoGo3.result";"trial.GoNoGo3.RT";"trial.GoNoGo3.signal";"trial.GoNoGo3.startTime";"trial.GoNoGo3.stimulus type";"trial.GoNoGo4.durationTime";"trial.GoNoGo4.endTime";"trial.GoNoGo4.Error Type";"trial.GoNoGo4.icon";"trial.GoNoGo4.location";"trial.GoNoGo4.outcome";"trial.GoNoGo4.response";"trial.GoNoGo4.result";"trial.GoNoGo4.RT";"trial.GoNoGo4.signal";"trial.GoNoGo4.startTime";"trial.GoNoGo4.stimulus type";"trial.GoNoGo_Practice.durationTime";"trial.GoNoGo_Practice.endTime";"trial.GoNoGo_Practice.icon";"trial.GoNoGo_Practice.location";"trial.GoNoGo_Practice.outcome";"trial.GoNoGo_Practice.response";"trial.GoNoGo_Practice.result";"trial.GoNoGo_Practice.RT";"trial.GoNoGo_Practice.signal";"trial.GoNoGo_Practice.startTime";"trial.GoNoGo_Practice.stimulus type";"trial.GoNoGo_Tutorial.durationTime";"trial.GoNoGo_Tutorial.endTime";"trial.GoNoGo_Tutorial.icon";"trial.GoNoGo_Tutorial.location";"trial.GoNoGo_Tutorial.outcome";"trial.GoNoGo_Tutorial.response";"trial.GoNoGo_Tutorial.result";"trial.GoNoGo_Tutorial.RT";"trial.GoNoGo_Tutorial.signal";"trial.GoNoGo_Tutorial.startTime";"trial.IAT_block1.durationTime";"trial.IAT_block1.endTime";"trial.IAT_block1.outcome";"trial.IAT_block1.response";"trial.IAT_block1.result";"trial.IAT_block1.RT";"trial.IAT_block1.startTime";"trial.IAT_block1.Stimfile";"trial.IAT_block1.stimType";"trial.IAT_block1.word";"trial.IAT_block2.durationTime";"trial.IAT_block2.endTime";"trial.IAT_block2.outcome";"trial.IAT_block2.response";"trial.IAT_block2.result";"trial.IAT_block2.RT";"trial.IAT_block2.startTime";"trial.IAT_block2.Stimfile";"trial.IAT_block2.stimType";"trial.IAT_block2.word";"trial.IAT_Practice1.durationTime";"trial.IAT_Practice1.endTime";"trial.IAT_Practice1.outcome";"trial.IAT_Practice1.response";"trial.IAT_Practice1.result";"trial.IAT_Practice1.RT";"trial.IAT_Practice1.startTime";"trial.IAT_Practice1.Stimfile";"trial.IAT_Practice1.stimType";"trial.IAT_Practice1.word"
"C1445516";"1996";;"Mac OS X";"Rachel's Experiment (SCIAT)";"1.0";"1";"1";"1";"1";"1";"1";"2014-09-30 20:11:25.422";"2014-09-30 20:27:25.684";"1";"0";"0";"1";"0";"1";"0";"module.GoNoGotutorial.exec-1085.GoNoGo_Tutorial";;;;;;;;;;;;;;;;;;;;;;;;;;;;;;;;;;;;;;;;;;;;;;;;;;;;;;;;;;;;"4002";"2014-09-30 20:11:59.141";"leftResponse";"0";"FINISHED";"NONE";"failure";"0";"0";"2014-09-30 20:11:55.138";;;;;;;;;;;;;;;;;;;;;;;;;;;;;;
"C1445516";"1996";;"Mac OS X";"Rachel's Experiment (SCIAT)";"1.0";"1";"1";"1";"1";"1";"1";"2014-09-30 20:11:25.422";"2014-09-30 20:27:25.684";"1";"0";"0";"1";"0";"2";"1";"module.GoNoGotutorial.exec-1085.GoNoGo_Tutorial";;;;;;;;;;;;;;;;;;;;;;;;;;;;;;;;;;;;;;;;;;;;;;;;;;;;;;;;;;;;"4000";"2014-09-30 20:12:04.478";"rightResponse";"1";"FINISHED";"NONE";"failure";"0";"0";"2014-09-30 20:12:00.478";;;;;;;;;;;;;;;;;;;;;;;;;;;;;;
"C1445516";"1996";;"Mac OS X";"Rachel's Experiment (SCIAT)";"1.0";"1";"1";"1";"1";"1";"1";"2014-09-30 20:11:25.422";"2014-09-30 20:27:25.684";"1";"0";"0";"1";"0";"3";"2";"module.GoNoGotutorial.exec-1085.GoNoGo_Tutorial";;;;;;;;;;;;;;;;;;;;;;;;;;;;;;;;;;;;;;;;;;;;;;;;;;;;;;;;;;;;"4001";"2014-09-30 20:12:09.834";"quickResponse";"0";"FINISHED";"NONE";"failure";"0";"0";"2014-09-30 20:12:05.833";;;;;;;;;;;;;;;;;;;;;;;;;;;;;;
"C1445516";"1996";;"Mac OS X";"Rachel's Experiment (SCIAT)";"1.0";"1";"1";"1";"1";"1";"1";"2014-09-30 20:11:25.422";"2014-09-30 20:27:25.684";"1";"0";"0";"1";"0";"4";"3";"module.GoNoGopractice.exec-7970.GoNoGo_Practice";;;;;;;;;;;;;;;;;;;;;;;;;;;;;;;;;;;;;;;;;;;;;;;;;"1970";"2014-09-30 20:12:18.450";"18";"0";"FINISHED";"RIGHT";"failure";"1099";"0";"2014-09-30 20:12:16.479";"3";;;;;;;;;;;;;;;;;;;;;;;;;;;;;;;;;;;;;;;;
"C1445516";"1996";;"Mac OS X";"Rachel's Experiment (SCIAT)";"1.0";"1";"1";"1";"1";"1";"1";"2014-09-30 20:11:25.422";"2014-09-30 20:27:25.684";"1";"0";"0";"1";"0";"5";"4";"module.GoNoGopractice.exec-7970.GoNoGo_Practice";;;;;;;;;;;;;;;;;;;;;;;;;;;;;;;;;;;;;;;;;;;;;;;;;"1955";"2014-09-30 20:12:21.705";"21";"1";"FINISHED";"LEFT";"failure";"629";"0";"2014-09-30 20:12:19.749";"3";;;;;;;;;;;;;;;;;;;;;;;;;;;;;;;;;;;;;;;;
"C1445516";"1996";;"Mac OS X";"Rachel's Experiment (SCIAT)";"1.0";"1";"1";"1";"1";"1";"1";"2014-09-30 20:11:25.422";"2014-09-30 20:27:25.684";"1";"0";"0";"1";"0";"6";"5";"module.GoNoGopractice.exec-7970.GoNoGo_Practice";;;;;;;;;;;;;;;;;;;;;;;;;;;;;;;;;;;;;;;;;;;;;;;;;"2014";"2014-09-30 20:12:25.067";"14";"1";"FINISHED";"RIGHT";"success";"1020";"0";"2014-09-30 20:12:23.053";"2";;;;;;;;;;;;;;;;;;;;;;;;;;;;;;;;;;;;;;;;
"C1445516";"1996";;"Mac OS X";"Rachel's Experiment (SCIAT)";"1.0";"1";"1";"1";"1";"1";"1";"2014-09-30 20:11:25.422";"2014-09-30 20:27:25.684";"1";"0";"0";"1";"0";"7";"6";"module.GoNoGopractice.exec-7970.GoNoGo_Practice";;;;;;;;;;;;;;;;;;;;;;;;;;;;;;;;;;;;;;;;;;;;;;;;;"1954";"2014-09-30 20:12:28.315";"26";"0";"FINISHED";"LEFT";"success";"433";"0";"2014-09-30 20:12:26.360";"3";;;;;;;;;;;;;;;;;;;;;;;;;;;;;;;;;;;;;;;;
"C1445516";"1996";;"Mac OS X";"Rachel's Experiment (SCIAT)";"1.0";"1";"1";"1";"1";"1";"1";"2014-09-30 20:11:25.422";"2014-09-30 20:27:25.684";"1";"0";"0";"1";"0";"8";"7";"module.GoNoGopractice.exec-7970.GoNoGo_Practice";;;;;;;;;;;;;;;;;;;;;;;;;;;;;;;;;;;;;;;;;;;;;;;;;"1954";"2014-09-30 20:12:31.566";"2";"0";"FINISHED";"LEFT";"success";"678";"0";"2014-09-30 20:12:29.611";"1";;;;;;;;;;;;;;;;;;;;;;;;;;;;;;;;;;;;;;;;
"C1445516";"1996";;"Mac OS X";"Rachel's Experiment (SCIAT)";"1.0";"1";"1";"1";"1";"1";"1";"2014-09-30 20:11:25.422";"2014-09-30 20:27:25.684";"1";"0";"0";"1";"0";"9";"8";"module.GoNoGopractice.exec-7970.GoNoGo_Practice";;;;;;;;;;;;;;;;;;;;;;;;;;;;;;;;;;;;;;;;;;;;;;;;;"1954";"2014-09-30 20:12:34.817";"30";"0";"FINISHED";"LEFT";"success";"514";"0";"2014-09-30 20:12:32.863";"3";;;;;;;;;;;;;;;;;;;;;;;;;;;;;;;;;;;;;;;;
"C1445516";"1996";;"Mac OS X";"Rachel's Experiment (SCIAT)";"1.0";"1";"1";"1";"1";"1";"1";"2014-09-30 20:11:25.422";"2014-09-30 20:27:25.684";"1";"0";"0";"1";"0";"10";"9";"module.GoNoGopractice.exec-7970.GoNoGo_Practice";;;;;;;;;;;;;;;;;;;;;;;;;;;;;;;;;;;;;;;;;;;;;;;;;"1955";"2014-09-30 20:12:38.088";"6";"1";"FINISHED";"RIGHT";"success";"411";"0";"2014-09-30 20:12:36.132";"1";;;;;;;;;;;;;;;;;;;;;;;;;;;;;;;;;;;;;;;;
"C1445516";"1996";;"Mac OS X";"Rachel's Experiment (SCIAT)";"1.0";"1";"1";"1";"1";"1";"1";"2014-09-30 20:11:25.422";"2014-09-30 20:27:25.684";"1";"0";"0";"1";"0";"11";"10";"module.GoNoGopractice.exec-7970.GoNoGo_Practice";;;;;;;;;;;;;;;;;;;;;;;;;;;;;;;;;;;;;;;;;;;;;;;;;"1955";"2014-09-30 20:12:41.393";"34";"0";"FINISHED";"LEFT";"success";"370";"0";"2014-09-30 20:12:39.438";"3";;;;;;;;;;;;;;;;;;;;;;;;;;;;;;;;;;;;;;;;
"C1445516";"1996";;"Mac OS X";"Rachel's Experiment (SCIAT)";"1.0";"1";"1";"1";"1";"1";"1";"2014-09-30 20:11:25.422";"2014-09-30 20:27:25.684";"1";"0";"0";"1";"0";"12";"11";"module.GoNoGopractice.exec-7970.GoNoGo_Practice";;;;;;;;;;;;;;;;;;;;;;;;;;;;;;;;;;;;;;;;;;;;;;;;;"1954";"2014-09-30 20:12:44.701";"23";"1";"FINISHED";"RIGHT";"success";"469";"0";"2014-09-30 20:12:42.747";"3";;;;;;;;;;;;;;;;;;;;;;;;;;;;;;;;;;;;;;;;
"C1445516";"1996";;"Mac OS X";"Rachel's Experiment (SCIAT)";"1.0";"1";"1";"1";"1";"1";"1";"2014-09-30 20:11:25.422";"2014-09-30 20:27:25.684";"1";"0";"0";"1";"0";"13";"12";"module.GoNoGopractice.exec-7970.GoNoGo_Practice";;;;;;;;;;;;;;;;;;;;;;;;;;;;;;;;;;;;;;;;;;;;;;;;;"1954";"2014-09-30 20:12:48.017";"13";"0";"FINISHED";"LEFT";"success";"433";"0";"2014-09-30 20:12:46.062";"2";;;;;;;;;;;;;;;;;;;;;;;;;;;;;;;;;;;;;;;;
"C1445516";"1996";;"Mac OS X";"Rachel's Experiment (SCIAT)";"1.0";"1";"1";"1";"1";"1";"1";"2014-09-30 20:11:25.422";"2014-09-30 20:27:25.684";"1";"0";"0";"1";"0";"14";"13";"module.GoNoGopractice.exec-7970.GoNoGo_Practice";;;;;;;;;;;;;;;;;;;;;;;;;;;;;;;;;;;;;;;;;;;;;;;;;"1955";"2014-09-30 20:12:51.268";"3";"1";"FINISHED";"RIGHT";"success";"392";"0";"2014-09-30 20:12:49.312";"1";;;;;;;;;;;;;;;;;;;;;;;;;;;;;;;;;;;;;;;;
"C1445516";"1996";;"Mac OS X";"Rachel's Experiment (SCIAT)";"1.0";"1";"1";"1";"1";"1";"1";"2014-09-30 20:11:25.422";"2014-09-30 20:27:25.684";"1";"0";"0";"1";"0";"15";"14";"module.GoNoGopractice.exec-7970.GoNoGo_Practice";;;;;;;;;;;;;;;;;;;;;;;;;;;;;;;;;;;;;;;;;;;;;;;;;"1953";"2014-09-30 20:12:54.521";"27";"1";"FINISHED";"RIGHT";"success";"600";"0";"2014-09-30 20:12:52.567";"3";;;;;;;;;;;;;;;;;;;;;;;;;;;;;;;;;;;;;;;;
"C1445516";"1996";;"Mac OS X";"Rachel's Experiment (SCIAT)";"1.0";"1";"1";"1";"1";"1";"1";"2014-09-30 20:11:25.422";"2014-09-30 20:27:25.684";"1";"0";"0";"1";"0";"16";"15";"module.training_block1.exec-3828.GoNoGo1";"1252";"2014-09-30 20:13:05.171";"NST_correctLoc";"2";"0";"FINISHED";"LEFT";"success";"580";"0";"2014-09-30 20:13:03.918";"1";;;;;;;;;;;;;;;;;;;;;;;;;;;;;;;;;;;;;;;;;;;;;;;;;;;;;;;;;;;;;;;;;;;;;;;;;;;;;;;;;;;;;;;
"C1445516";"1996";;"Mac OS X";"Rachel's Experiment (SCIAT)";"1.0";"1";"1";"1";"1";"1";"1";"2014-09-30 20:11:25.422";"2014-09-30 20:27:25.684";"1";"0";"0";"1";"0";"17";"16";"module.training_block1.exec-3828.GoNoGo1";"1251";"2014-09-30 20:13:07.773";"NST_correctLoc";"16";"1";"FINISHED";"RIGHT";"success";"600";"0";"2014-09-30 20:13:06.522";"2";;;;;;;;;;;;;;;;;;;;;;;;;;;;;;;;;;;;;;;;;;;;;;;;;;;;;;;;;;;;;;;;;;;;;;;;;;;;;;;;;;;;;;;
"C1445516";"1996";;"Mac OS X";"Rachel's Experiment (SCIAT)";"1.0";"1";"1";"1";"1";"1";"1";"2014-09-30 20:11:25.422";"2014-09-30 20:27:25.684";"1";"0";"0";"1";"0";"18";"17";"module.training_block1.exec-3828.GoNoGo1";"1251";"2014-09-30 20:13:10.335";"NST_correctLoc";"24";"0";"FINISHED";"LEFT";"success";"391";"0";"2014-09-30 20:13:09.083";"3";;;;;;;;;;;;;;;;;;;;;;;;;;;;;;;;;;;;;;;;;;;;;;;;;;;;;;;;;;;;;;;;;;;;;;;;;;;;;;;;;;;;;;;
"C1445516";"1996";;"Mac OS X";"Rachel's Experiment (SCIAT)";"1.0";"1";"1";"1";"1";"1";"1";"2014-09-30 20:11:25.422";"2014-09-30 20:27:25.684";"1";"0";"0";"1";"0";"19";"18";"module.training_block1.exec-3828.GoNoGo1";"1250";"2014-09-30 20:13:12.875";"NST_correctLoc";"21";"0";"FINISHED";"LEFT";"success";"393";"0";"2014-09-30 20:13:11.624";"3";;;;;;;;;;;;;;;;;;;;;;;;;;;;;;;;;;;;;;;;;;;;;;;;;;;;;;;;;;;;;;;;;;;;;;;;;;;;;;;;;;;;;;;
"C1445516";"1996";;"Mac OS X";"Rachel's Experiment (SCIAT)";"1.0";"1";"1";"1";"1";"1";"1";"2014-09-30 20:11:25.422";"2014-09-30 20:27:25.684";"1";"0";"0";"1";"0";"20";"19";"module.training_block1.exec-3828.GoNoGo1";"1250";"2014-09-30 20:13:15.432";"NST_correctLoc";"1";"1";"FINISHED";"RIGHT";"success";"404";"0";"2014-09-30 20:13:14.181";"1";;;;;;;;;;;;;;;;;;;;;;;;;;;;;;;;;;;;;;;;;;;;;;;;;;;;;;;;;;;;;;;;;;;;;;;;;;;;;;;;;;;;;;;
"C1445516";"1996";;"Mac OS X";"Rachel's Experiment (SCIAT)";"1.0";"1";"1";"1";"1";"1";"1";"2014-09-30 20:11:25.422";"2014-09-30 20:27:25.684";"1";"0";"0";"1";"0";"21";"20";"module.training_block1.exec-3828.GoNoGo1";"1250";"2014-09-30 20:13:17.977";"NST_correctLoc";"7";"1";"FINISHED";"RIGHT";"success";"451";"0";"2014-09-30 20:13:16.726";"1";;;;;;;;;;;;;;;;;;;;;;;;;;;;;;;;;;;;;;;;;;;;;;;;;;;;;;;;;;;;;;;;;;;;;;;;;;;;;;;;;;;;;;;
"C1445516";"1996";;"Mac OS X";"Rachel's Experiment (SCIAT)";"1.0";"1";"1";"1";"1";"1";"1";"2014-09-30 20:11:25.422";"2014-09-30 20:27:25.684";"1";"0";"0";"1";"0";"22";"21";"module.training_block1.exec-3828.GoNoGo1";"1251";"2014-09-30 20:13:20.526";"NST_correctLoc";"28";"1";"FINISHED";"RIGHT";"success";"510";"0";"2014-09-30 20:13:19.275";"3";;;;;;;;;;;;;;;;;;;;;;;;;;;;;;;;;;;;;;;;;;;;;;;;;;;;;;;;;;;;;;;;;;;;;;;;;;;;;;;;;;;;;;;
"C1445516";"1996";;"Mac OS X";"Rachel's Experiment (SCIAT)";"1.0";"1";"1";"1";"1";"1";"1";"2014-09-30 20:11:25.422";"2014-09-30 20:27:25.684";"1";"0";"0";"1";"0";"23";"22";"module.training_block1.exec-3828.GoNoGo1";"1250";"2014-09-30 20:13:23.070";"NST_correctLoc";"9";"1";"FINISHED";"RIGHT";"success";"389";"0";"2014-09-30 20:13:21.819";"2";;;;;;;;;;;;;;;;;;;;;;;;;;;;;;;;;;;;;;;;;;;;;;;;;;;;;;;;;;;;;;;;;;;;;;;;;;;;;;;;;;;;;;;
"C1445516";"1996";;"Mac OS X";"Rachel's Experiment (SCIAT)";"1.0";"1";"1";"1";"1";"1";"1";"2014-09-30 20:11:25.422";"2014-09-30 20:27:25.684";"1";"0";"0";"1";"0";"24";"23";"module.training_block1.exec-3828.GoNoGo1";"1251";"2014-09-30 20:13:25.615";"NST_correctLoc";"15";"0";"FINISHED";"LEFT";"success";"365";"0";"2014-09-30 20:13:24.364";"2";;;;;;;;;;;;;;;;;;;;;;;;;;;;;;;;;;;;;;;;;;;;;;;;;;;;;;;;;;;;;;;;;;;;;;;;;;;;;;;;;;;;;;;
"C1445516";"1996";;"Mac OS X";"Rachel's Experiment (SCIAT)";"1.0";"1";"1";"1";"1";"1";"1";"2014-09-30 20:11:25.422";"2014-09-30 20:27:25.684";"1";"0";"0";"1";"0";"25";"24";"module.training_block1.exec-3828.GoNoGo1";"1251";"2014-09-30 20:13:28.152";"NST_correctLoc";"14";"1";"FINISHED";"RIGHT";"success";"524";"0";"2014-09-30 20:13:26.900";"2";;;;;;;;;;;;;;;;;;;;;;;;;;;;;;;;;;;;;;;;;;;;;;;;;;;;;;;;;;;;;;;;;;;;;;;;;;;;;;;;;;;;;;;
"C1445516";"1996";;"Mac OS X";"Rachel's Experiment (SCIAT)";"1.0";"1";"1";"1";"1";"1";"1";"2014-09-30 20:11:25.422";"2014-09-30 20:27:25.684";"1";"0";"0";"1";"0";"26";"25";"module.training_block1.exec-3828.GoNoGo1";"1251";"2014-09-30 20:13:30.690";"NST_correctLoc";"13";"0";"FINISHED";"LEFT";"success";"402";"0";"2014-09-30 20:13:29.439";"2";;;;;;;;;;;;;;;;;;;;;;;;;;;;;;;;;;;;;;;;;;;;;;;;;;;;;;;;;;;;;;;;;;;;;;;;;;;;;;;;;;;;;;;
"C1445516";"1996";;"Mac OS X";"Rachel's Experiment (SCIAT)";"1.0";"1";"1";"1";"1";"1";"1";"2014-09-30 20:11:25.422";"2014-09-30 20:27:25.684";"1";"0";"0";"1";"0";"27";"26";"module.training_block1.exec-3828.GoNoGo1";"1251";"2014-09-30 20:13:33.231";"NST_correctLoc";"32";"1";"FINISHED";"RIGHT";"success";"515";"0";"2014-09-30 20:13:31.980";"3";;;;;;;;;;;;;;;;;;;;;;;;;;;;;;;;;;;;;;;;;;;;;;;;;;;;;;;;;;;;;;;;;;;;;;;;;;;;;;;;;;;;;;;
"C1445516";"1996";;"Mac OS X";"Rachel's Experiment (SCIAT)";"1.0";"1";"1";"1";"1";"1";"1";"2014-09-30 20:11:25.422";"2014-09-30 20:27:25.684";"1";"0";"0";"1";"0";"28";"27";"module.training_block1.exec-3828.GoNoGo1";"1251";"2014-09-30 20:13:35.780";"NST_correctLoc";"19";"1";"FINISHED";"RIGHT";"success";"399";"0";"2014-09-30 20:13:34.528";"3";;;;;;;;;;;;;;;;;;;;;;;;;;;;;;;;;;;;;;;;;;;;;;;;;;;;;;;;;;;;;;;;;;;;;;;;;;;;;;;;;;;;;;;
"C1445516";"1996";;"Mac OS X";"Rachel's Experiment (SCIAT)";"1.0";"1";"1";"1";"1";"1";"1";"2014-09-30 20:11:25.422";"2014-09-30 20:27:25.684";"1";"0";"0";"1";"0";"29";"28";"module.training_block1.exec-3828.GoNoGo1";"1251";"2014-09-30 20:13:38.335";"NST_correctLoc";"33";"0";"FINISHED";"LEFT";"success";"492";"0";"2014-09-30 20:13:37.084";"3";;;;;;;;;;;;;;;;;;;;;;;;;;;;;;;;;;;;;;;;;;;;;;;;;;;;;;;;;;;;;;;;;;;;;;;;;;;;;;;;;;;;;;;
"C1445516";"1996";;"Mac OS X";"Rachel's Experiment (SCIAT)";"1.0";"1";"1";"1";"1";"1";"1";"2014-09-30 20:11:25.422";"2014-09-30 20:27:25.684";"1";"0";"0";"1";"0";"30";"29";"module.training_block1.exec-3828.GoNoGo1";"1250";"2014-09-30 20:13:40.871";"NST_correctLoc";"34";"1";"FINISHED";"RIGHT";"success";"363";"0";"2014-09-30 20:13:39.621";"3";;;;;;;;;;;;;;;;;;;;;;;;;;;;;;;;;;;;;;;;;;;;;;;;;;;;;;;;;;;;;;;;;;;;;;;;;;;;;;;;;;;;;;;
"C1445516";"1996";;"Mac OS X";"Rachel's Experiment (SCIAT)";"1.0";"1";"1";"1";"1";"1";"1";"2014-09-30 20:11:25.422";"2014-09-30 20:27:25.684";"1";"0";"0";"1";"0";"31";"30";"module.training_block1.exec-3828.GoNoGo1";"1251";"2014-09-30 20:13:43.408";"NST_correctLoc";"27";"0";"FINISHED";"LEFT";"success";"722";"0";"2014-09-30 20:13:42.156";"3";;;;;;;;;;;;;;;;;;;;;;;;;;;;;;;;;;;;;;;;;;;;;;;;;;;;;;;;;;;;;;;;;;;;;;;;;;;;;;;;;;;;;;;
"C1445516";"1996";;"Mac OS X";"Rachel's Experiment (SCIAT)";"1.0";"1";"1";"1";"1";"1";"1";"2014-09-30 20:11:25.422";"2014-09-30 20:27:25.684";"1";"0";"0";"1";"0";"32";"31";"module.training_block1.exec-3828.GoNoGo1";"1251";"2014-09-30 20:13:46.007";"NST_correctLoc";"29";"1";"FINISHED";"RIGHT";"success";"491";"0";"2014-09-30 20:13:44.755";"3";;;;;;;;;;;;;;;;;;;;;;;;;;;;;;;;;;;;;;;;;;;;;;;;;;;;;;;;;;;;;;;;;;;;;;;;;;;;;;;;;;;;;;;
"C1445516";"1996";;"Mac OS X";"Rachel's Experiment (SCIAT)";"1.0";"1";"1";"1";"1";"1";"1";"2014-09-30 20:11:25.422";"2014-09-30 20:27:25.684";"1";"0";"0";"1";"0";"33";"32";"module.training_block1.exec-3828.GoNoGo1";"1251";"2014-09-30 20:13:48.551";"NST_correctLoc";"26";"1";"FINISHED";"RIGHT";"success";"555";"0";"2014-09-30 20:13:47.300";"3";;;;;;;;;;;;;;;;;;;;;;;;;;;;;;;;;;;;;;;;;;;;;;;;;;;;;;;;;;;;;;;;;;;;;;;;;;;;;;;;;;;;;;;
"C1445516";"1996";;"Mac OS X";"Rachel's Experiment (SCIAT)";"1.0";"1";"1";"1";"1";"1";"1";"2014-09-30 20:11:25.422";"2014-09-30 20:27:25.684";"1";"0";"0";"1";"0";"34";"33";"module.training_block1.exec-3828.GoNoGo1";"1251";"2014-09-30 20:13:51.142";"NST_correctLoc";"25";"1";"FINISHED";"RIGHT";"success";"580";"0";"2014-09-30 20:13:49.891";"3";;;;;;;;;;;;;;;;;;;;;;;;;;;;;;;;;;;;;;;;;;;;;;;;;;;;;;;;;;;;;;;;;;;;;;;;;;;;;;;;;;;;;;;
"C1445516";"1996";;"Mac OS X";"Rachel's Experiment (SCIAT)";"1.0";"1";"1";"1";"1";"1";"1";"2014-09-30 20:11:25.422";"2014-09-30 20:27:25.684";"1";"0";"0";"1";"0";"35";"34";"module.training_block1.exec-3828.GoNoGo1";"1251";"2014-09-30 20:13:53.699";"NST_correctLoc";"22";"1";"FINISHED";"RIGHT";"success";"558";"0";"2014-09-30 20:13:52.448";"3";;;;;;;;;;;;;;;;;;;;;;;;;;;;;;;;;;;;;;;;;;;;;;;;;;;;;;;;;;;;;;;;;;;;;;;;;;;;;;;;;;;;;;;
"C1445516";"1996";;"Mac OS X";"Rachel's Experiment (SCIAT)";"1.0";"1";"1";"1";"1";"1";"1";"2014-09-30 20:11:25.422";"2014-09-30 20:27:25.684";"1";"0";"0";"1";"0";"36";"35";"module.training_block1.exec-3828.GoNoGo1";"1251";"2014-09-30 20:13:56.236";"NST_correctLoc";"23";"1";"FINISHED";"RIGHT";"success";"397";"0";"2014-09-30 20:13:54.984";"3";;;;;;;;;;;;;;;;;;;;;;;;;;;;;;;;;;;;;;;;;;;;;;;;;;;;;;;;;;;;;;;;;;;;;;;;;;;;;;;;;;;;;;;
"C1445516";"1996";;"Mac OS X";"Rachel's Experiment (SCIAT)";"1.0";"1";"1";"1";"1";"1";"1";"2014-09-30 20:11:25.422";"2014-09-30 20:27:25.684";"1";"0";"0";"1";"0";"37";"36";"module.training_block1.exec-3828.GoNoGo1";"1251";"2014-09-30 20:13:58.837";"NST_correctLoc";"35";"1";"FINISHED";"RIGHT";"success";"412";"0";"2014-09-30 20:13:57.586";"3";;;;;;;;;;;;;;;;;;;;;;;;;;;;;;;;;;;;;;;;;;;;;;;;;;;;;;;;;;;;;;;;;;;;;;;;;;;;;;;;;;;;;;;
"C1445516";"1996";;"Mac OS X";"Rachel's Experiment (SCIAT)";"1.0";"1";"1";"1";"1";"1";"1";"2014-09-30 20:11:25.422";"2014-09-30 20:27:25.684";"1";"0";"0";"1";"0";"38";"37";"module.training_block1.exec-3828.GoNoGo1";"1251";"2014-09-30 20:14:01.380";"NST_correctLoc";"18";"1";"FINISHED";"RIGHT";"success";"485";"0";"2014-09-30 20:14:00.128";"3";;;;;;;;;;;;;;;;;;;;;;;;;;;;;;;;;;;;;;;;;;;;;;;;;;;;;;;;;;;;;;;;;;;;;;;;;;;;;;;;;;;;;;;
"C1445516";"1996";;"Mac OS X";"Rachel's Experiment (SCIAT)";"1.0";"1";"1";"1";"1";"1";"1";"2014-09-30 20:11:25.422";"2014-09-30 20:27:25.684";"1";"0";"0";"1";"0";"39";"38";"module.training_block1.exec-3828.GoNoGo1";"1250";"2014-09-30 20:14:03.930";"NST_correctLoc";"8";"0";"FINISHED";"LEFT";"success";"453";"0";"2014-09-30 20:14:02.679";"1";;;;;;;;;;;;;;;;;;;;;;;;;;;;;;;;;;;;;;;;;;;;;;;;;;;;;;;;;;;;;;;;;;;;;;;;;;;;;;;;;;;;;;;
"C1445516";"1996";;"Mac OS X";"Rachel's Experiment (SCIAT)";"1.0";"1";"1";"1";"1";"1";"1";"2014-09-30 20:11:25.422";"2014-09-30 20:27:25.684";"1";"0";"0";"1";"0";"40";"39";"module.training_block1.exec-3828.GoNoGo1";"1251";"2014-09-30 20:14:06.527";"NST_correctLoc";"11";"0";"FINISHED";"LEFT";"success";"393";"0";"2014-09-30 20:14:05.275";"2";;;;;;;;;;;;;;;;;;;;;;;;;;;;;;;;;;;;;;;;;;;;;;;;;;;;;;;;;;;;;;;;;;;;;;;;;;;;;;;;;;;;;;;
"C1445516";"1996";;"Mac OS X";"Rachel's Experiment (SCIAT)";"1.0";"1";"1";"1";"1";"1";"1";"2014-09-30 20:11:25.422";"2014-09-30 20:27:25.684";"1";"0";"0";"1";"0";"41";"40";"module.training_block1.exec-3828.GoNoGo1";"1250";"2014-09-30 20:14:09.061";"NST_correctLoc";"30";"1";"FINISHED";"RIGHT";"success";"595";"0";"2014-09-30 20:14:07.810";"3";;;;;;;;;;;;;;;;;;;;;;;;;;;;;;;;;;;;;;;;;;;;;;;;;;;;;;;;;;;;;;;;;;;;;;;;;;;;;;;;;;;;;;;
"C1445516";"1996";;"Mac OS X";"Rachel's Experiment (SCIAT)";"1.0";"1";"1";"1";"1";"1";"1";"2014-09-30 20:11:25.422";"2014-09-30 20:27:25.684";"1";"0";"0";"1";"0";"42";"41";"module.training_block1.exec-3828.GoNoGo1";"1251";"2014-09-30 20:14:11.599";"NST_correctLoc";"6";"0";"FINISHED";"LEFT";"success";"394";"0";"2014-09-30 20:14:10.347";"1";;;;;;;;;;;;;;;;;;;;;;;;;;;;;;;;;;;;;;;;;;;;;;;;;;;;;;;;;;;;;;;;;;;;;;;;;;;;;;;;;;;;;;;
"C1445516";"1996";;"Mac OS X";"Rachel's Experiment (SCIAT)";"1.0";"1";"1";"1";"1";"1";"1";"2014-09-30 20:11:25.422";"2014-09-30 20:27:25.684";"1";"0";"0";"1";"0";"43";"42";"module.training_block1.exec-3828.GoNoGo1";"1251";"2014-09-30 20:14:14.203";"NST_correctLoc";"4";"1";"FINISHED";"RIGHT";"success";"356";"0";"2014-09-30 20:14:12.951";"1";;;;;;;;;;;;;;;;;;;;;;;;;;;;;;;;;;;;;;;;;;;;;;;;;;;;;;;;;;;;;;;;;;;;;;;;;;;;;;;;;;;;;;;
"C1445516";"1996";;"Mac OS X";"Rachel's Experiment (SCIAT)";"1.0";"1";"1";"1";"1";"1";"1";"2014-09-30 20:11:25.422";"2014-09-30 20:27:25.684";"1";"0";"0";"1";"0";"44";"43";"module.training_block1.exec-3828.GoNoGo1";"1250";"2014-09-30 20:14:16.799";"NST_correctLoc";"17";"0";"FINISHED";"LEFT";"success";"400";"0";"2014-09-30 20:14:15.548";"2";;;;;;;;;;;;;;;;;;;;;;;;;;;;;;;;;;;;;;;;;;;;;;;;;;;;;;;;;;;;;;;;;;;;;;;;;;;;;;;;;;;;;;;
"C1445516";"1996";;"Mac OS X";"Rachel's Experiment (SCIAT)";"1.0";"1";"1";"1";"1";"1";"1";"2014-09-30 20:11:25.422";"2014-09-30 20:27:25.684";"1";"0";"0";"1";"0";"45";"44";"module.training_block1.exec-3828.GoNoGo1";"1251";"2014-09-30 20:14:19.397";"NST_correctLoc";"5";"1";"FINISHED";"RIGHT";"success";"418";"0";"2014-09-30 20:14:18.146";"1";;;;;;;;;;;;;;;;;;;;;;;;;;;;;;;;;;;;;;;;;;;;;;;;;;;;;;;;;;;;;;;;;;;;;;;;;;;;;;;;;;;;;;;
"C1445516";"1996";;"Mac OS X";"Rachel's Experiment (SCIAT)";"1.0";"1";"1";"1";"1";"1";"1";"2014-09-30 20:11:25.422";"2014-09-30 20:27:25.684";"1";"0";"0";"1";"0";"46";"45";"module.training_block1.exec-3828.GoNoGo1";"1251";"2014-09-30 20:14:21.936";"NST_correctLoc";"31";"0";"FINISHED";"LEFT";"success";"335";"0";"2014-09-30 20:14:20.685";"3";;;;;;;;;;;;;;;;;;;;;;;;;;;;;;;;;;;;;;;;;;;;;;;;;;;;;;;;;;;;;;;;;;;;;;;;;;;;;;;;;;;;;;;
"C1445516";"1996";;"Mac OS X";"Rachel's Experiment (SCIAT)";"1.0";"1";"1";"1";"1";"1";"1";"2014-09-30 20:11:25.422";"2014-09-30 20:27:25.684";"1";"0";"0";"1";"0";"47";"46";"module.training_block1.exec-3828.GoNoGo1";"1251";"2014-09-30 20:14:24.479";"NST_correctLoc";"20";"1";"FINISHED";"RIGHT";"success";"288";"0";"2014-09-30 20:14:23.227";"3";;;;;;;;;;;;;;;;;;;;;;;;;;;;;;;;;;;;;;;;;;;;;;;;;;;;;;;;;;;;;;;;;;;;;;;;;;;;;;;;;;;;;;;
"C1445516";"1996";;"Mac OS X";"Rachel's Experiment (SCIAT)";"1.0";"1";"1";"1";"1";"1";"1";"2014-09-30 20:11:25.422";"2014-09-30 20:27:25.684";"1";"0";"0";"1";"0";"48";"47";"module.training_block1.exec-3828.GoNoGo1";"1251";"2014-09-30 20:14:27.069";"NST_correctLoc";"0";"0";"FINISHED";"LEFT";"success";"505";"0";"2014-09-30 20:14:25.818";"1";;;;;;;;;;;;;;;;;;;;;;;;;;;;;;;;;;;;;;;;;;;;;;;;;;;;;;;;;;;;;;;;;;;;;;;;;;;;;;;;;;;;;;;
"C1445516";"1996";;"Mac OS X";"Rachel's Experiment (SCIAT)";"1.0";"1";"1";"1";"1";"1";"1";"2014-09-30 20:11:25.422";"2014-09-30 20:27:25.684";"1";"0";"0";"1";"0";"49";"48";"module.training_block1.exec-3828.GoNoGo1";"1250";"2014-09-30 20:14:29.613";"NST_correctLoc";"12";"1";"FINISHED";"RIGHT";"success";"361";"0";"2014-09-30 20:14:28.362";"2";;;;;;;;;;;;;;;;;;;;;;;;;;;;;;;;;;;;;;;;;;;;;;;;;;;;;;;;;;;;;;;;;;;;;;;;;;;;;;;;;;;;;;;
"C1445516";"1996";;"Mac OS X";"Rachel's Experiment (SCIAT)";"1.0";"1";"1";"1";"1";"1";"1";"2014-09-30 20:11:25.422";"2014-09-30 20:27:25.684";"1";"0";"0";"1";"0";"50";"49";"module.training_block1.exec-3828.GoNoGo1";"1250";"2014-09-30 20:14:32.155";"NST_correctLoc";"10";"1";"FINISHED";"RIGHT";"success";"434";"0";"2014-09-30 20:14:30.905";"2";;;;;;;;;;;;;;;;;;;;;;;;;;;;;;;;;;;;;;;;;;;;;;;;;;;;;;;;;;;;;;;;;;;;;;;;;;;;;;;;;;;;;;;
"C1445516";"1996";;"Mac OS X";"Rachel's Experiment (SCIAT)";"1.0";"1";"1";"1";"1";"1";"1";"2014-09-30 20:11:25.422";"2014-09-30 20:27:25.684";"1";"0";"0";"1";"0";"51";"50";"module.training_block1.exec-3828.GoNoGo1";"1251";"2014-09-30 20:14:34.690";"NST_correctLoc";"3";"1";"FINISHED";"RIGHT";"success";"395";"0";"2014-09-30 20:14:33.438";"1";;;;;;;;;;;;;;;;;;;;;;;;;;;;;;;;;;;;;;;;;;;;;;;;;;;;;;;;;;;;;;;;;;;;;;;;;;;;;;;;;;;;;;;
"C1445516";"1996";;"Mac OS X";"Rachel's Experiment (SCIAT)";"1.0";"1";"1";"1";"1";"1";"1";"2014-09-30 20:11:25.422";"2014-09-30 20:27:25.684";"1";"0";"0";"1";"0";"52";"51";"module.training_block2.exec-8759.GoNoGo2";;;;;;;;;;;;;"1251";"2014-09-30 20:14:46.739";"NST_correctLoc";"19";"0";"FINISHED";"LEFT";"success";"392";"0";"2014-09-30 20:14:45.487";"3";;;;;;;;;;;;;;;;;;;;;;;;;;;;;;;;;;;;;;;;;;;;;;;;;;;;;;;;;;;;;;;;;;;;;;;;;;;
"C1445516";"1996";;"Mac OS X";"Rachel's Experiment (SCIAT)";"1.0";"1";"1";"1";"1";"1";"1";"2014-09-30 20:11:25.422";"2014-09-30 20:27:25.684";"1";"0";"0";"1";"0";"53";"52";"module.training_block2.exec-8759.GoNoGo2";;;;;;;;;;;;;"1251";"2014-09-30 20:14:49.278";"NST_correctLoc";"15";"1";"FINISHED";"RIGHT";"success";"429";"0";"2014-09-30 20:14:48.026";"2";;;;;;;;;;;;;;;;;;;;;;;;;;;;;;;;;;;;;;;;;;;;;;;;;;;;;;;;;;;;;;;;;;;;;;;;;;;
"C1445516";"1996";;"Mac OS X";"Rachel's Experiment (SCIAT)";"1.0";"1";"1";"1";"1";"1";"1";"2014-09-30 20:11:25.422";"2014-09-30 20:27:25.684";"1";"0";"0";"1";"0";"54";"53";"module.training_block2.exec-8759.GoNoGo2";;;;;;;;;;;;;"1250";"2014-09-30 20:14:51.957";"NST_correctLoc";"27";"1";"FINISHED";"RIGHT";"success";"397";"0";"2014-09-30 20:14:50.706";"3";;;;;;;;;;;;;;;;;;;;;;;;;;;;;;;;;;;;;;;;;;;;;;;;;;;;;;;;;;;;;;;;;;;;;;;;;;;
"C1445516";"1996";;"Mac OS X";"Rachel's Experiment (SCIAT)";"1.0";"1";"1";"1";"1";"1";"1";"2014-09-30 20:11:25.422";"2014-09-30 20:27:25.684";"1";"0";"0";"1";"0";"55";"54";"module.training_block2.exec-8759.GoNoGo2";;;;;;;;;;;;;"1251";"2014-09-30 20:14:54.500";"NST_correctLoc";"18";"0";"FINISHED";"LEFT";"success";"422";"0";"2014-09-30 20:14:53.249";"3";;;;;;;;;;;;;;;;;;;;;;;;;;;;;;;;;;;;;;;;;;;;;;;;;;;;;;;;;;;;;;;;;;;;;;;;;;;
"C1445516";"1996";;"Mac OS X";"Rachel's Experiment (SCIAT)";"1.0";"1";"1";"1";"1";"1";"1";"2014-09-30 20:11:25.422";"2014-09-30 20:27:25.684";"1";"0";"0";"1";"0";"56";"55";"module.training_block2.exec-8759.GoNoGo2";;;;;;;;;;;;;"1251";"2014-09-30 20:14:57.037";"NST_correctLoc";"33";"1";"FINISHED";"RIGHT";"success";"388";"0";"2014-09-30 20:14:55.786";"3";;;;;;;;;;;;;;;;;;;;;;;;;;;;;;;;;;;;;;;;;;;;;;;;;;;;;;;;;;;;;;;;;;;;;;;;;;;
"C1445516";"1996";;"Mac OS X";"Rachel's Experiment (SCIAT)";"1.0";"1";"1";"1";"1";"1";"1";"2014-09-30 20:11:25.422";"2014-09-30 20:27:25.684";"1";"0";"0";"1";"0";"57";"56";"module.training_block2.exec-8759.GoNoGo2";;;;;;;;;;;;;"1251";"2014-09-30 20:14:59.572";"NST_correctLoc";"34";"1";"FINISHED";"RIGHT";"success";"413";"0";"2014-09-30 20:14:58.321";"3";;;;;;;;;;;;;;;;;;;;;;;;;;;;;;;;;;;;;;;;;;;;;;;;;;;;;;;;;;;;;;;;;;;;;;;;;;;
"C1445516";"1996";;"Mac OS X";"Rachel's Experiment (SCIAT)";"1.0";"1";"1";"1";"1";"1";"1";"2014-09-30 20:11:25.422";"2014-09-30 20:27:25.684";"1";"0";"0";"1";"0";"58";"57";"module.training_block2.exec-8759.GoNoGo2";;;;;;;;;;;;;"1250";"2014-09-30 20:15:02.110";"NST_correctLoc";"30";"0";"FINISHED";"LEFT";"success";"411";"0";"2014-09-30 20:15:00.859";"3";;;;;;;;;;;;;;;;;;;;;;;;;;;;;;;;;;;;;;;;;;;;;;;;;;;;;;;;;;;;;;;;;;;;;;;;;;;
"C1445516";"1996";;"Mac OS X";"Rachel's Experiment (SCIAT)";"1.0";"1";"1";"1";"1";"1";"1";"2014-09-30 20:11:25.422";"2014-09-30 20:27:25.684";"1";"0";"0";"1";"0";"59";"58";"module.training_block2.exec-8759.GoNoGo2";;;;;;;;;;;;;"1251";"2014-09-30 20:15:04.645";"NST_correctLoc";"9";"1";"FINISHED";"RIGHT";"success";"348";"0";"2014-09-30 20:15:03.393";"2";;;;;;;;;;;;;;;;;;;;;;;;;;;;;;;;;;;;;;;;;;;;;;;;;;;;;;;;;;;;;;;;;;;;;;;;;;;
"C1445516";"1996";;"Mac OS X";"Rachel's Experiment (SCIAT)";"1.0";"1";"1";"1";"1";"1";"1";"2014-09-30 20:11:25.422";"2014-09-30 20:27:25.684";"1";"0";"0";"1";"0";"60";"59";"module.training_block2.exec-8759.GoNoGo2";;;;;;;;;;;;;"1251";"2014-09-30 20:15:07.184";"NST_correctLoc";"35";"0";"FINISHED";"LEFT";"success";"368";"0";"2014-09-30 20:15:05.933";"3";;;;;;;;;;;;;;;;;;;;;;;;;;;;;;;;;;;;;;;;;;;;;;;;;;;;;;;;;;;;;;;;;;;;;;;;;;;
"C1445516";"1996";;"Mac OS X";"Rachel's Experiment (SCIAT)";"1.0";"1";"1";"1";"1";"1";"1";"2014-09-30 20:11:25.422";"2014-09-30 20:27:25.684";"1";"0";"0";"1";"0";"61";"60";"module.training_block2.exec-8759.GoNoGo2";;;;;;;;;;;;;"1250";"2014-09-30 20:15:09.724";"NST_correctLoc";"12";"1";"FINISHED";"RIGHT";"success";"323";"0";"2014-09-30 20:15:08.473";"2";;;;;;;;;;;;;;;;;;;;;;;;;;;;;;;;;;;;;;;;;;;;;;;;;;;;;;;;;;;;;;;;;;;;;;;;;;;
"C1445516";"1996";;"Mac OS X";"Rachel's Experiment (SCIAT)";"1.0";"1";"1";"1";"1";"1";"1";"2014-09-30 20:11:25.422";"2014-09-30 20:27:25.684";"1";"0";"0";"1";"0";"62";"61";"module.training_block2.exec-8759.GoNoGo2";;;;;;;;;;;;;"1250";"2014-09-30 20:15:12.257";"NST_correctLoc";"22";"0";"FINISHED";"LEFT";"success";"351";"0";"2014-09-30 20:15:11.006";"3";;;;;;;;;;;;;;;;;;;;;;;;;;;;;;;;;;;;;;;;;;;;;;;;;;;;;;;;;;;;;;;;;;;;;;;;;;;
"C1445516";"1996";;"Mac OS X";"Rachel's Experiment (SCIAT)";"1.0";"1";"1";"1";"1";"1";"1";"2014-09-30 20:11:25.422";"2014-09-30 20:27:25.684";"1";"0";"0";"1";"0";"63";"62";"module.training_block2.exec-8759.GoNoGo2";;;;;;;;;;;;;"1250";"2014-09-30 20:15:14.789";"NST_correctLoc";"0";"0";"FINISHED";"LEFT";"success";"458";"0";"2014-09-30 20:15:13.539";"1";;;;;;;;;;;;;;;;;;;;;;;;;;;;;;;;;;;;;;;;;;;;;;;;;;;;;;;;;;;;;;;;;;;;;;;;;;;
"C1445516";"1996";;"Mac OS X";"Rachel's Experiment (SCIAT)";"1.0";"1";"1";"1";"1";"1";"1";"2014-09-30 20:11:25.422";"2014-09-30 20:27:25.684";"1";"0";"0";"1";"0";"64";"63";"module.training_block2.exec-8759.GoNoGo2";;;;;;;;;;;;;"1251";"2014-09-30 20:15:17.337";"NST_correctLoc";"21";"1";"FINISHED";"RIGHT";"success";"407";"0";"2014-09-30 20:15:16.085";"3";;;;;;;;;;;;;;;;;;;;;;;;;;;;;;;;;;;;;;;;;;;;;;;;;;;;;;;;;;;;;;;;;;;;;;;;;;;
"C1445516";"1996";;"Mac OS X";"Rachel's Experiment (SCIAT)";"1.0";"1";"1";"1";"1";"1";"1";"2014-09-30 20:11:25.422";"2014-09-30 20:27:25.684";"1";"0";"0";"1";"0";"65";"64";"module.training_block2.exec-8759.GoNoGo2";;;;;;;;;;;;;"1251";"2014-09-30 20:15:19.877";"NST_correctLoc";"11";"1";"FINISHED";"RIGHT";"success";"387";"0";"2014-09-30 20:15:18.625";"2";;;;;;;;;;;;;;;;;;;;;;;;;;;;;;;;;;;;;;;;;;;;;;;;;;;;;;;;;;;;;;;;;;;;;;;;;;;
"C1445516";"1996";;"Mac OS X";"Rachel's Experiment (SCIAT)";"1.0";"1";"1";"1";"1";"1";"1";"2014-09-30 20:11:25.422";"2014-09-30 20:27:25.684";"1";"0";"0";"1";"0";"66";"65";"module.training_block2.exec-8759.GoNoGo2";;;;;;;;;;;;;"1250";"2014-09-30 20:15:22.415";"NST_correctLoc";"10";"1";"FINISHED";"RIGHT";"success";"392";"0";"2014-09-30 20:15:21.164";"2";;;;;;;;;;;;;;;;;;;;;;;;;;;;;;;;;;;;;;;;;;;;;;;;;;;;;;;;;;;;;;;;;;;;;;;;;;;
"C1445516";"1996";;"Mac OS X";"Rachel's Experiment (SCIAT)";"1.0";"1";"1";"1";"1";"1";"1";"2014-09-30 20:11:25.422";"2014-09-30 20:27:25.684";"1";"0";"0";"1";"0";"67";"66";"module.training_block2.exec-8759.GoNoGo2";;;;;;;;;;;;;"1251";"2014-09-30 20:15:24.949";"NST_correctLoc";"6";"0";"FINISHED";"LEFT";"success";"426";"0";"2014-09-30 20:15:23.698";"1";;;;;;;;;;;;;;;;;;;;;;;;;;;;;;;;;;;;;;;;;;;;;;;;;;;;;;;;;;;;;;;;;;;;;;;;;;;
"C1445516";"1996";;"Mac OS X";"Rachel's Experiment (SCIAT)";"1.0";"1";"1";"1";"1";"1";"1";"2014-09-30 20:11:25.422";"2014-09-30 20:27:25.684";"1";"0";"0";"1";"0";"68";"67";"module.training_block2.exec-8759.GoNoGo2";;;;;;;;;;;;;"1251";"2014-09-30 20:15:27.484";"NST_correctLoc";"5";"1";"FINISHED";"RIGHT";"success";"371";"0";"2014-09-30 20:15:26.233";"1";;;;;;;;;;;;;;;;;;;;;;;;;;;;;;;;;;;;;;;;;;;;;;;;;;;;;;;;;;;;;;;;;;;;;;;;;;;
"C1445516";"1996";;"Mac OS X";"Rachel's Experiment (SCIAT)";"1.0";"1";"1";"1";"1";"1";"1";"2014-09-30 20:11:25.422";"2014-09-30 20:27:25.684";"1";"0";"0";"1";"0";"69";"68";"module.training_block2.exec-8759.GoNoGo2";;;;;;;;;;;;;"1251";"2014-09-30 20:15:30.024";"NST_correctLoc";"7";"0";"FINISHED";"LEFT";"success";"335";"0";"2014-09-30 20:15:28.773";"1";;;;;;;;;;;;;;;;;;;;;;;;;;;;;;;;;;;;;;;;;;;;;;;;;;;;;;;;;;;;;;;;;;;;;;;;;;;
"C1445516";"1996";;"Mac OS X";"Rachel's Experiment (SCIAT)";"1.0";"1";"1";"1";"1";"1";"1";"2014-09-30 20:11:25.422";"2014-09-30 20:27:25.684";"1";"0";"0";"1";"0";"70";"69";"module.training_block2.exec-8759.GoNoGo2";;;;;;;;;;;;;"1250";"2014-09-30 20:15:32.556";"NST_correctLoc";"20";"1";"FINISHED";"RIGHT";"success";"346";"0";"2014-09-30 20:15:31.305";"3";;;;;;;;;;;;;;;;;;;;;;;;;;;;;;;;;;;;;;;;;;;;;;;;;;;;;;;;;;;;;;;;;;;;;;;;;;;
"C1445516";"1996";;"Mac OS X";"Rachel's Experiment (SCIAT)";"1.0";"1";"1";"1";"1";"1";"1";"2014-09-30 20:11:25.422";"2014-09-30 20:27:25.684";"1";"0";"0";"1";"0";"71";"70";"module.training_block2.exec-8759.GoNoGo2";;;;;;;;;;;;;"1251";"2014-09-30 20:15:35.092";"NST_correctLoc";"32";"1";"FINISHED";"RIGHT";"success";"419";"0";"2014-09-30 20:15:33.840";"3";;;;;;;;;;;;;;;;;;;;;;;;;;;;;;;;;;;;;;;;;;;;;;;;;;;;;;;;;;;;;;;;;;;;;;;;;;;
"C1445516";"1996";;"Mac OS X";"Rachel's Experiment (SCIAT)";"1.0";"1";"1";"1";"1";"1";"1";"2014-09-30 20:11:25.422";"2014-09-30 20:27:25.684";"1";"0";"0";"1";"0";"72";"71";"module.training_block2.exec-8759.GoNoGo2";;;;;;;;;;;;;"1251";"2014-09-30 20:15:37.629";"NST_correctLoc";"29";"1";"FINISHED";"RIGHT";"success";"385";"0";"2014-09-30 20:15:36.378";"3";;;;;;;;;;;;;;;;;;;;;;;;;;;;;;;;;;;;;;;;;;;;;;;;;;;;;;;;;;;;;;;;;;;;;;;;;;;
"C1445516";"1996";;"Mac OS X";"Rachel's Experiment (SCIAT)";"1.0";"1";"1";"1";"1";"1";"1";"2014-09-30 20:11:25.422";"2014-09-30 20:27:25.684";"1";"0";"0";"1";"0";"73";"72";"module.training_block2.exec-8759.GoNoGo2";;;;;;;;;;;;;"1251";"2014-09-30 20:15:40.175";"NST_correctLoc";"1";"0";"FINISHED";"LEFT";"success";"463";"0";"2014-09-30 20:15:38.923";"1";;;;;;;;;;;;;;;;;;;;;;;;;;;;;;;;;;;;;;;;;;;;;;;;;;;;;;;;;;;;;;;;;;;;;;;;;;;
"C1445516";"1996";;"Mac OS X";"Rachel's Experiment (SCIAT)";"1.0";"1";"1";"1";"1";"1";"1";"2014-09-30 20:11:25.422";"2014-09-30 20:27:25.684";"1";"0";"0";"1";"0";"74";"73";"module.training_block2.exec-8759.GoNoGo2";;;;;;;;;;;;;"1250";"2014-09-30 20:15:42.712";"NST_correctLoc";"28";"1";"FINISHED";"RIGHT";"success";"390";"0";"2014-09-30 20:15:41.461";"3";;;;;;;;;;;;;;;;;;;;;;;;;;;;;;;;;;;;;;;;;;;;;;;;;;;;;;;;;;;;;;;;;;;;;;;;;;;
"C1445516";"1996";;"Mac OS X";"Rachel's Experiment (SCIAT)";"1.0";"1";"1";"1";"1";"1";"1";"2014-09-30 20:11:25.422";"2014-09-30 20:27:25.684";"1";"0";"0";"1";"0";"75";"74";"module.training_block2.exec-8759.GoNoGo2";;;;;;;;;;;;;"1251";"2014-09-30 20:15:45.244";"NST_correctLoc";"3";"0";"FINISHED";"LEFT";"success";"409";"0";"2014-09-30 20:15:43.992";"1";;;;;;;;;;;;;;;;;;;;;;;;;;;;;;;;;;;;;;;;;;;;;;;;;;;;;;;;;;;;;;;;;;;;;;;;;;;
"C1445516";"1996";;"Mac OS X";"Rachel's Experiment (SCIAT)";"1.0";"1";"1";"1";"1";"1";"1";"2014-09-30 20:11:25.422";"2014-09-30 20:27:25.684";"1";"0";"0";"1";"0";"76";"75";"module.training_block2.exec-8759.GoNoGo2";;;;;;;;;;;;;"1250";"2014-09-30 20:15:47.782";"NST_correctLoc";"16";"0";"FINISHED";"LEFT";"success";"406";"0";"2014-09-30 20:15:46.532";"2";;;;;;;;;;;;;;;;;;;;;;;;;;;;;;;;;;;;;;;;;;;;;;;;;;;;;;;;;;;;;;;;;;;;;;;;;;;
"C1445516";"1996";;"Mac OS X";"Rachel's Experiment (SCIAT)";"1.0";"1";"1";"1";"1";"1";"1";"2014-09-30 20:11:25.422";"2014-09-30 20:27:25.684";"1";"0";"0";"1";"0";"77";"76";"module.training_block2.exec-8759.GoNoGo2";;;;;;;;;;;;;"1251";"2014-09-30 20:15:50.319";"NST_correctLoc";"17";"1";"FINISHED";"RIGHT";"success";"654";"0";"2014-09-30 20:15:49.068";"2";;;;;;;;;;;;;;;;;;;;;;;;;;;;;;;;;;;;;;;;;;;;;;;;;;;;;;;;;;;;;;;;;;;;;;;;;;;
"C1445516";"1996";;"Mac OS X";"Rachel's Experiment (SCIAT)";"1.0";"1";"1";"1";"1";"1";"1";"2014-09-30 20:11:25.422";"2014-09-30 20:27:25.684";"1";"0";"0";"1";"0";"78";"77";"module.training_block2.exec-8759.GoNoGo2";;;;;;;;;;;;;"1250";"2014-09-30 20:15:52.851";"NST_correctLoc";"23";"1";"FINISHED";"RIGHT";"success";"440";"0";"2014-09-30 20:15:51.600";"3";;;;;;;;;;;;;;;;;;;;;;;;;;;;;;;;;;;;;;;;;;;;;;;;;;;;;;;;;;;;;;;;;;;;;;;;;;;
"C1445516";"1996";;"Mac OS X";"Rachel's Experiment (SCIAT)";"1.0";"1";"1";"1";"1";"1";"1";"2014-09-30 20:11:25.422";"2014-09-30 20:27:25.684";"1";"0";"0";"1";"0";"79";"78";"module.training_block2.exec-8759.GoNoGo2";;;;;;;;;;;;;"1251";"2014-09-30 20:15:55.386";"NST_correctLoc";"25";"1";"FINISHED";"RIGHT";"success";"419";"0";"2014-09-30 20:15:54.134";"3";;;;;;;;;;;;;;;;;;;;;;;;;;;;;;;;;;;;;;;;;;;;;;;;;;;;;;;;;;;;;;;;;;;;;;;;;;;
"C1445516";"1996";;"Mac OS X";"Rachel's Experiment (SCIAT)";"1.0";"1";"1";"1";"1";"1";"1";"2014-09-30 20:11:25.422";"2014-09-30 20:27:25.684";"1";"0";"0";"1";"0";"80";"79";"module.training_block2.exec-8759.GoNoGo2";;;;;;;;;;;;;"1251";"2014-09-30 20:15:57.924";"NST_correctLoc";"2";"0";"FINISHED";"LEFT";"success";"408";"0";"2014-09-30 20:15:56.673";"1";;;;;;;;;;;;;;;;;;;;;;;;;;;;;;;;;;;;;;;;;;;;;;;;;;;;;;;;;;;;;;;;;;;;;;;;;;;
"C1445516";"1996";;"Mac OS X";"Rachel's Experiment (SCIAT)";"1.0";"1";"1";"1";"1";"1";"1";"2014-09-30 20:11:25.422";"2014-09-30 20:27:25.684";"1";"0";"0";"1";"0";"81";"80";"module.training_block2.exec-8759.GoNoGo2";;;;;;;;;;;;;"1251";"2014-09-30 20:16:00.456";"NST_correctLoc";"4";"1";"FINISHED";"RIGHT";"success";"468";"0";"2014-09-30 20:15:59.205";"1";;;;;;;;;;;;;;;;;;;;;;;;;;;;;;;;;;;;;;;;;;;;;;;;;;;;;;;;;;;;;;;;;;;;;;;;;;;
"C1445516";"1996";;"Mac OS X";"Rachel's Experiment (SCIAT)";"1.0";"1";"1";"1";"1";"1";"1";"2014-09-30 20:11:25.422";"2014-09-30 20:27:25.684";"1";"0";"0";"1";"0";"82";"81";"module.training_block2.exec-8759.GoNoGo2";;;;;;;;;;;;;"1250";"2014-09-30 20:16:02.986";"NST_correctLoc";"13";"0";"FINISHED";"LEFT";"success";"448";"0";"2014-09-30 20:16:01.736";"2";;;;;;;;;;;;;;;;;;;;;;;;;;;;;;;;;;;;;;;;;;;;;;;;;;;;;;;;;;;;;;;;;;;;;;;;;;;
"C1445516";"1996";;"Mac OS X";"Rachel's Experiment (SCIAT)";"1.0";"1";"1";"1";"1";"1";"1";"2014-09-30 20:11:25.422";"2014-09-30 20:27:25.684";"1";"0";"0";"1";"0";"83";"82";"module.training_block2.exec-8759.GoNoGo2";;;;;;;;;;;;;"1251";"2014-09-30 20:16:05.525";"NST_correctLoc";"24";"0";"FINISHED";"LEFT";"success";"959";"0";"2014-09-30 20:16:04.273";"3";;;;;;;;;;;;;;;;;;;;;;;;;;;;;;;;;;;;;;;;;;;;;;;;;;;;;;;;;;;;;;;;;;;;;;;;;;;
"C1445516";"1996";;"Mac OS X";"Rachel's Experiment (SCIAT)";"1.0";"1";"1";"1";"1";"1";"1";"2014-09-30 20:11:25.422";"2014-09-30 20:27:25.684";"1";"0";"0";"1";"0";"84";"83";"module.training_block2.exec-8759.GoNoGo2";;;;;;;;;;;;;"1251";"2014-09-30 20:16:08.056";"NST_correctLoc";"8";"0";"FINISHED";"LEFT";"success";"459";"0";"2014-09-30 20:16:06.805";"1";;;;;;;;;;;;;;;;;;;;;;;;;;;;;;;;;;;;;;;;;;;;;;;;;;;;;;;;;;;;;;;;;;;;;;;;;;;
"C1445516";"1996";;"Mac OS X";"Rachel's Experiment (SCIAT)";"1.0";"1";"1";"1";"1";"1";"1";"2014-09-30 20:11:25.422";"2014-09-30 20:27:25.684";"1";"0";"0";"1";"0";"85";"84";"module.training_block2.exec-8759.GoNoGo2";;;;;;;;;;;;;"1251";"2014-09-30 20:16:10.592";"NST_correctLoc";"14";"0";"FINISHED";"LEFT";"success";"395";"0";"2014-09-30 20:16:09.341";"2";;;;;;;;;;;;;;;;;;;;;;;;;;;;;;;;;;;;;;;;;;;;;;;;;;;;;;;;;;;;;;;;;;;;;;;;;;;
"C1445516";"1996";;"Mac OS X";"Rachel's Experiment (SCIAT)";"1.0";"1";"1";"1";"1";"1";"1";"2014-09-30 20:11:25.422";"2014-09-30 20:27:25.684";"1";"0";"0";"1";"0";"86";"85";"module.training_block2.exec-8759.GoNoGo2";;;;;;;;;;;;;"1251";"2014-09-30 20:16:13.125";"NST_correctLoc";"31";"0";"FINISHED";"LEFT";"success";"365";"0";"2014-09-30 20:16:11.874";"3";;;;;;;;;;;;;;;;;;;;;;;;;;;;;;;;;;;;;;;;;;;;;;;;;;;;;;;;;;;;;;;;;;;;;;;;;;;
"C1445516";"1996";;"Mac OS X";"Rachel's Experiment (SCIAT)";"1.0";"1";"1";"1";"1";"1";"1";"2014-09-30 20:11:25.422";"2014-09-30 20:27:25.684";"1";"0";"0";"1";"0";"87";"86";"module.training_block2.exec-8759.GoNoGo2";;;;;;;;;;;;;"1251";"2014-09-30 20:16:15.661";"NST_correctLoc";"26";"1";"FINISHED";"RIGHT";"success";"396";"0";"2014-09-30 20:16:14.410";"3";;;;;;;;;;;;;;;;;;;;;;;;;;;;;;;;;;;;;;;;;;;;;;;;;;;;;;;;;;;;;;;;;;;;;;;;;;;
"C1445516";"1996";;"Mac OS X";"Rachel's Experiment (SCIAT)";"1.0";"1";"1";"1";"1";"1";"1";"2014-09-30 20:11:25.422";"2014-09-30 20:27:25.684";"1";"0";"0";"1";"0";"88";"87";"module.training_block3.exec-5375.GoNoGo3";;;;;;;;;;;;;;;;;;;;;;;;;"1251";"2014-09-30 20:16:37.743";"NST_correctLoc";"19";"0";"FINISHED";"LEFT";"success";"523";"0";"2014-09-30 20:16:36.491";"3";;;;;;;;;;;;;;;;;;;;;;;;;;;;;;;;;;;;;;;;;;;;;;;;;;;;;;;;;;;;;;;
"C1445516";"1996";;"Mac OS X";"Rachel's Experiment (SCIAT)";"1.0";"1";"1";"1";"1";"1";"1";"2014-09-30 20:11:25.422";"2014-09-30 20:27:25.684";"1";"0";"0";"1";"0";"89";"88";"module.training_block3.exec-5375.GoNoGo3";;;;;;;;;;;;;;;;;;;;;;;;;"1251";"2014-09-30 20:16:40.275";"NST_correctLoc";"0";"0";"FINISHED";"LEFT";"success";"623";"0";"2014-09-30 20:16:39.023";"1";;;;;;;;;;;;;;;;;;;;;;;;;;;;;;;;;;;;;;;;;;;;;;;;;;;;;;;;;;;;;;;
"C1445516";"1996";;"Mac OS X";"Rachel's Experiment (SCIAT)";"1.0";"1";"1";"1";"1";"1";"1";"2014-09-30 20:11:25.422";"2014-09-30 20:27:25.684";"1";"0";"0";"1";"0";"90";"89";"module.training_block3.exec-5375.GoNoGo3";;;;;;;;;;;;;;;;;;;;;;;;;"1250";"2014-09-30 20:16:42.809";"NST_correctLoc";"4";"0";"FINISHED";"LEFT";"success";"416";"0";"2014-09-30 20:16:41.558";"1";;;;;;;;;;;;;;;;;;;;;;;;;;;;;;;;;;;;;;;;;;;;;;;;;;;;;;;;;;;;;;;
"C1445516";"1996";;"Mac OS X";"Rachel's Experiment (SCIAT)";"1.0";"1";"1";"1";"1";"1";"1";"2014-09-30 20:11:25.422";"2014-09-30 20:27:25.684";"1";"0";"0";"1";"0";"91";"90";"module.training_block3.exec-5375.GoNoGo3";;;;;;;;;;;;;;;;;;;;;;;;;"1250";"2014-09-30 20:16:45.347";"NST_correctLoc";"20";"1";"FINISHED";"RIGHT";"success";"510";"0";"2014-09-30 20:16:44.096";"3";;;;;;;;;;;;;;;;;;;;;;;;;;;;;;;;;;;;;;;;;;;;;;;;;;;;;;;;;;;;;;;
"C1445516";"1996";;"Mac OS X";"Rachel's Experiment (SCIAT)";"1.0";"1";"1";"1";"1";"1";"1";"2014-09-30 20:11:25.422";"2014-09-30 20:27:25.684";"1";"0";"0";"1";"0";"92";"91";"module.training_block3.exec-5375.GoNoGo3";;;;;;;;;;;;;;;;;;;;;;;;;"1251";"2014-09-30 20:16:47.879";"NST_correctLoc";"21";"0";"FINISHED";"LEFT";"success";"426";"0";"2014-09-30 20:16:46.628";"3";;;;;;;;;;;;;;;;;;;;;;;;;;;;;;;;;;;;;;;;;;;;;;;;;;;;;;;;;;;;;;;
"C1445516";"1996";;"Mac OS X";"Rachel's Experiment (SCIAT)";"1.0";"1";"1";"1";"1";"1";"1";"2014-09-30 20:11:25.422";"2014-09-30 20:27:25.684";"1";"0";"0";"1";"0";"93";"92";"module.training_block3.exec-5375.GoNoGo3";;;;;;;;;;;;;;;;;;;;;;;;;"1251";"2014-09-30 20:16:50.412";"NST_correctLoc";"11";"1";"FINISHED";"RIGHT";"success";"405";"0";"2014-09-30 20:16:49.160";"2";;;;;;;;;;;;;;;;;;;;;;;;;;;;;;;;;;;;;;;;;;;;;;;;;;;;;;;;;;;;;;;
"C1445516";"1996";;"Mac OS X";"Rachel's Experiment (SCIAT)";"1.0";"1";"1";"1";"1";"1";"1";"2014-09-30 20:11:25.422";"2014-09-30 20:27:25.684";"1";"0";"0";"1";"0";"94";"93";"module.training_block3.exec-5375.GoNoGo3";;;;;;;;;;;;;;;;;;;;;;;;;"1250";"2014-09-30 20:16:52.943";"NST_miss";"28";"1";"FINISHED";"NONE";"failure";"0";"0";"2014-09-30 20:16:51.692";"3";;;;;;;;;;;;;;;;;;;;;;;;;;;;;;;;;;;;;;;;;;;;;;;;;;;;;;;;;;;;;;;
"C1445516";"1996";;"Mac OS X";"Rachel's Experiment (SCIAT)";"1.0";"1";"1";"1";"1";"1";"1";"2014-09-30 20:11:25.422";"2014-09-30 20:27:25.684";"1";"0";"0";"1";"0";"95";"94";"module.training_block3.exec-5375.GoNoGo3";;;;;;;;;;;;;;;;;;;;;;;;;"1251";"2014-09-30 20:16:55.475";"NST_correctLoc";"18";"1";"FINISHED";"RIGHT";"success";"1005";"0";"2014-09-30 20:16:54.223";"3";;;;;;;;;;;;;;;;;;;;;;;;;;;;;;;;;;;;;;;;;;;;;;;;;;;;;;;;;;;;;;;
"C1445516";"1996";;"Mac OS X";"Rachel's Experiment (SCIAT)";"1.0";"1";"1";"1";"1";"1";"1";"2014-09-30 20:11:25.422";"2014-09-30 20:27:25.684";"1";"0";"0";"1";"0";"96";"95";"module.training_block3.exec-5375.GoNoGo3";;;;;;;;;;;;;;;;;;;;;;;;;"1250";"2014-09-30 20:16:58.007";"NST_correctLoc";"16";"1";"FINISHED";"RIGHT";"success";"544";"0";"2014-09-30 20:16:56.756";"2";;;;;;;;;;;;;;;;;;;;;;;;;;;;;;;;;;;;;;;;;;;;;;;;;;;;;;;;;;;;;;;
"C1445516";"1996";;"Mac OS X";"Rachel's Experiment (SCIAT)";"1.0";"1";"1";"1";"1";"1";"1";"2014-09-30 20:11:25.422";"2014-09-30 20:27:25.684";"1";"0";"0";"1";"0";"97";"96";"module.training_block3.exec-5375.GoNoGo3";;;;;;;;;;;;;;;;;;;;;;;;;"1251";"2014-09-30 20:17:00.538";"NST_correctLoc";"14";"0";"FINISHED";"LEFT";"success";"430";"0";"2014-09-30 20:16:59.287";"2";;;;;;;;;;;;;;;;;;;;;;;;;;;;;;;;;;;;;;;;;;;;;;;;;;;;;;;;;;;;;;;
"C1445516";"1996";;"Mac OS X";"Rachel's Experiment (SCIAT)";"1.0";"1";"1";"1";"1";"1";"1";"2014-09-30 20:11:25.422";"2014-09-30 20:27:25.684";"1";"0";"0";"1";"0";"98";"97";"module.training_block3.exec-5375.GoNoGo3";;;;;;;;;;;;;;;;;;;;;;;;;"1250";"2014-09-30 20:17:03.075";"NST_correctLoc";"27";"0";"FINISHED";"LEFT";"success";"404";"0";"2014-09-30 20:17:01.824";"3";;;;;;;;;;;;;;;;;;;;;;;;;;;;;;;;;;;;;;;;;;;;;;;;;;;;;;;;;;;;;;;
"C1445516";"1996";;"Mac OS X";"Rachel's Experiment (SCIAT)";"1.0";"1";"1";"1";"1";"1";"1";"2014-09-30 20:11:25.422";"2014-09-30 20:27:25.684";"1";"0";"0";"1";"0";"99";"98";"module.training_block3.exec-5375.GoNoGo3";;;;;;;;;;;;;;;;;;;;;;;;;"1251";"2014-09-30 20:17:05.609";"NST_correctLoc";"13";"1";"FINISHED";"RIGHT";"success";"406";"0";"2014-09-30 20:17:04.358";"2";;;;;;;;;;;;;;;;;;;;;;;;;;;;;;;;;;;;;;;;;;;;;;;;;;;;;;;;;;;;;;;
"C1445516";"1996";;"Mac OS X";"Rachel's Experiment (SCIAT)";"1.0";"1";"1";"1";"1";"1";"1";"2014-09-30 20:11:25.422";"2014-09-30 20:27:25.684";"1";"0";"0";"1";"0";"100";"99";"module.training_block3.exec-5375.GoNoGo3";;;;;;;;;;;;;;;;;;;;;;;;;"1250";"2014-09-30 20:17:08.139";"NST_correctLoc";"9";"1";"FINISHED";"RIGHT";"success";"499";"0";"2014-09-30 20:17:06.889";"2";;;;;;;;;;;;;;;;;;;;;;;;;;;;;;;;;;;;;;;;;;;;;;;;;;;;;;;;;;;;;;;
"C1445516";"1996";;"Mac OS X";"Rachel's Experiment (SCIAT)";"1.0";"1";"1";"1";"1";"1";"1";"2014-09-30 20:11:25.422";"2014-09-30 20:27:25.684";"1";"0";"0";"1";"0";"101";"100";"module.training_block3.exec-5375.GoNoGo3";;;;;;;;;;;;;;;;;;;;;;;;;"1251";"2014-09-30 20:17:10.677";"NST_correctLoc";"10";"0";"FINISHED";"LEFT";"success";"642";"0";"2014-09-30 20:17:09.425";"2";;;;;;;;;;;;;;;;;;;;;;;;;;;;;;;;;;;;;;;;;;;;;;;;;;;;;;;;;;;;;;;
"C1445516";"1996";;"Mac OS X";"Rachel's Experiment (SCIAT)";"1.0";"1";"1";"1";"1";"1";"1";"2014-09-30 20:11:25.422";"2014-09-30 20:27:25.684";"1";"0";"0";"1";"0";"102";"101";"module.training_block3.exec-5375.GoNoGo3";;;;;;;;;;;;;;;;;;;;;;;;;"1251";"2014-09-30 20:17:13.211";"NST_correctLoc";"6";"1";"FINISHED";"RIGHT";"success";"412";"0";"2014-09-30 20:17:11.959";"1";;;;;;;;;;;;;;;;;;;;;;;;;;;;;;;;;;;;;;;;;;;;;;;;;;;;;;;;;;;;;;;
"C1445516";"1996";;"Mac OS X";"Rachel's Experiment (SCIAT)";"1.0";"1";"1";"1";"1";"1";"1";"2014-09-30 20:11:25.422";"2014-09-30 20:27:25.684";"1";"0";"0";"1";"0";"103";"102";"module.training_block3.exec-5375.GoNoGo3";;;;;;;;;;;;;;;;;;;;;;;;;"1251";"2014-09-30 20:17:15.744";"NST_correctLoc";"5";"0";"FINISHED";"LEFT";"success";"414";"0";"2014-09-30 20:17:14.493";"1";;;;;;;;;;;;;;;;;;;;;;;;;;;;;;;;;;;;;;;;;;;;;;;;;;;;;;;;;;;;;;;
"C1445516";"1996";;"Mac OS X";"Rachel's Experiment (SCIAT)";"1.0";"1";"1";"1";"1";"1";"1";"2014-09-30 20:11:25.422";"2014-09-30 20:27:25.684";"1";"0";"0";"1";"0";"104";"103";"module.training_block3.exec-5375.GoNoGo3";;;;;;;;;;;;;;;;;;;;;;;;;"1251";"2014-09-30 20:17:18.278";"NST_correctLoc";"1";"0";"FINISHED";"LEFT";"success";"672";"0";"2014-09-30 20:17:17.026";"1";;;;;;;;;;;;;;;;;;;;;;;;;;;;;;;;;;;;;;;;;;;;;;;;;;;;;;;;;;;;;;;
"C1445516";"1996";;"Mac OS X";"Rachel's Experiment (SCIAT)";"1.0";"1";"1";"1";"1";"1";"1";"2014-09-30 20:11:25.422";"2014-09-30 20:27:25.684";"1";"0";"0";"1";"0";"105";"104";"module.training_block3.exec-5375.GoNoGo3";;;;;;;;;;;;;;;;;;;;;;;;;"1251";"2014-09-30 20:17:20.811";"NST_correctLoc";"12";"1";"FINISHED";"RIGHT";"success";"508";"0";"2014-09-30 20:17:19.559";"2";;;;;;;;;;;;;;;;;;;;;;;;;;;;;;;;;;;;;;;;;;;;;;;;;;;;;;;;;;;;;;;
"C1445516";"1996";;"Mac OS X";"Rachel's Experiment (SCIAT)";"1.0";"1";"1";"1";"1";"1";"1";"2014-09-30 20:11:25.422";"2014-09-30 20:27:25.684";"1";"0";"0";"1";"0";"106";"105";"module.training_block3.exec-5375.GoNoGo3";;;;;;;;;;;;;;;;;;;;;;;;;"1251";"2014-09-30 20:17:23.341";"NST_correctLoc";"3";"0";"FINISHED";"LEFT";"success";"433";"0";"2014-09-30 20:17:22.089";"1";;;;;;;;;;;;;;;;;;;;;;;;;;;;;;;;;;;;;;;;;;;;;;;;;;;;;;;;;;;;;;;
"C1445516";"1996";;"Mac OS X";"Rachel's Experiment (SCIAT)";"1.0";"1";"1";"1";"1";"1";"1";"2014-09-30 20:11:25.422";"2014-09-30 20:27:25.684";"1";"0";"0";"1";"0";"107";"106";"module.training_block3.exec-5375.GoNoGo3";;;;;;;;;;;;;;;;;;;;;;;;;"1251";"2014-09-30 20:17:25.871";"NST_correctLoc";"15";"0";"FINISHED";"LEFT";"success";"414";"0";"2014-09-30 20:17:24.620";"2";;;;;;;;;;;;;;;;;;;;;;;;;;;;;;;;;;;;;;;;;;;;;;;;;;;;;;;;;;;;;;;
"C1445516";"1996";;"Mac OS X";"Rachel's Experiment (SCIAT)";"1.0";"1";"1";"1";"1";"1";"1";"2014-09-30 20:11:25.422";"2014-09-30 20:27:25.684";"1";"0";"0";"1";"0";"108";"107";"module.training_block3.exec-5375.GoNoGo3";;;;;;;;;;;;;;;;;;;;;;;;;"1251";"2014-09-30 20:17:28.407";"NST_correctLoc";"35";"1";"FINISHED";"RIGHT";"success";"934";"0";"2014-09-30 20:17:27.156";"3";;;;;;;;;;;;;;;;;;;;;;;;;;;;;;;;;;;;;;;;;;;;;;;;;;;;;;;;;;;;;;;
"C1445516";"1996";;"Mac OS X";"Rachel's Experiment (SCIAT)";"1.0";"1";"1";"1";"1";"1";"1";"2014-09-30 20:11:25.422";"2014-09-30 20:27:25.684";"1";"0";"0";"1";"0";"109";"108";"module.training_block3.exec-5375.GoNoGo3";;;;;;;;;;;;;;;;;;;;;;;;;"1251";"2014-09-30 20:17:30.945";"NST_correctLoc";"29";"0";"FINISHED";"LEFT";"success";"884";"0";"2014-09-30 20:17:29.694";"3";;;;;;;;;;;;;;;;;;;;;;;;;;;;;;;;;;;;;;;;;;;;;;;;;;;;;;;;;;;;;;;
"C1445516";"1996";;"Mac OS X";"Rachel's Experiment (SCIAT)";"1.0";"1";"1";"1";"1";"1";"1";"2014-09-30 20:11:25.422";"2014-09-30 20:27:25.684";"1";"0";"0";"1";"0";"110";"109";"module.training_block3.exec-5375.GoNoGo3";;;;;;;;;;;;;;;;;;;;;;;;;"1251";"2014-09-30 20:17:33.476";"NST_correctLoc";"31";"0";"FINISHED";"LEFT";"success";"385";"0";"2014-09-30 20:17:32.224";"3";;;;;;;;;;;;;;;;;;;;;;;;;;;;;;;;;;;;;;;;;;;;;;;;;;;;;;;;;;;;;;;
"C1445516";"1996";;"Mac OS X";"Rachel's Experiment (SCIAT)";"1.0";"1";"1";"1";"1";"1";"1";"2014-09-30 20:11:25.422";"2014-09-30 20:27:25.684";"1";"0";"0";"1";"0";"111";"110";"module.training_block3.exec-5375.GoNoGo3";;;;;;;;;;;;;;;;;;;;;;;;;"1250";"2014-09-30 20:17:36.007";"NST_correctLoc";"34";"1";"FINISHED";"RIGHT";"success";"437";"0";"2014-09-30 20:17:34.756";"3";;;;;;;;;;;;;;;;;;;;;;;;;;;;;;;;;;;;;;;;;;;;;;;;;;;;;;;;;;;;;;;
"C1445516";"1996";;"Mac OS X";"Rachel's Experiment (SCIAT)";"1.0";"1";"1";"1";"1";"1";"1";"2014-09-30 20:11:25.422";"2014-09-30 20:27:25.684";"1";"0";"0";"1";"0";"112";"111";"module.training_block3.exec-5375.GoNoGo3";;;;;;;;;;;;;;;;;;;;;;;;;"1251";"2014-09-30 20:17:38.543";"NST_correctLoc";"30";"1";"FINISHED";"RIGHT";"success";"397";"0";"2014-09-30 20:17:37.292";"3";;;;;;;;;;;;;;;;;;;;;;;;;;;;;;;;;;;;;;;;;;;;;;;;;;;;;;;;;;;;;;;
"C1445516";"1996";;"Mac OS X";"Rachel's Experiment (SCIAT)";"1.0";"1";"1";"1";"1";"1";"1";"2014-09-30 20:11:25.422";"2014-09-30 20:27:25.684";"1";"0";"0";"1";"0";"113";"112";"module.training_block3.exec-5375.GoNoGo3";;;;;;;;;;;;;;;;;;;;;;;;;"1251";"2014-09-30 20:17:41.075";"NST_correctLoc";"26";"1";"FINISHED";"RIGHT";"success";"408";"0";"2014-09-30 20:17:39.824";"3";;;;;;;;;;;;;;;;;;;;;;;;;;;;;;;;;;;;;;;;;;;;;;;;;;;;;;;;;;;;;;;
"C1445516";"1996";;"Mac OS X";"Rachel's Experiment (SCIAT)";"1.0";"1";"1";"1";"1";"1";"1";"2014-09-30 20:11:25.422";"2014-09-30 20:27:25.684";"1";"0";"0";"1";"0";"114";"113";"module.training_block3.exec-5375.GoNoGo3";;;;;;;;;;;;;;;;;;;;;;;;;"1251";"2014-09-30 20:17:43.605";"NST_correctLoc";"33";"1";"FINISHED";"RIGHT";"success";"375";"0";"2014-09-30 20:17:42.353";"3";;;;;;;;;;;;;;;;;;;;;;;;;;;;;;;;;;;;;;;;;;;;;;;;;;;;;;;;;;;;;;;
"C1445516";"1996";;"Mac OS X";"Rachel's Experiment (SCIAT)";"1.0";"1";"1";"1";"1";"1";"1";"2014-09-30 20:11:25.422";"2014-09-30 20:27:25.684";"1";"0";"0";"1";"0";"115";"114";"module.training_block3.exec-5375.GoNoGo3";;;;;;;;;;;;;;;;;;;;;;;;;"1251";"2014-09-30 20:17:46.136";"NST_correctLoc";"7";"0";"FINISHED";"LEFT";"success";"388";"0";"2014-09-30 20:17:44.884";"1";;;;;;;;;;;;;;;;;;;;;;;;;;;;;;;;;;;;;;;;;;;;;;;;;;;;;;;;;;;;;;;
"C1445516";"1996";;"Mac OS X";"Rachel's Experiment (SCIAT)";"1.0";"1";"1";"1";"1";"1";"1";"2014-09-30 20:11:25.422";"2014-09-30 20:27:25.684";"1";"0";"0";"1";"0";"116";"115";"module.training_block3.exec-5375.GoNoGo3";;;;;;;;;;;;;;;;;;;;;;;;;"1251";"2014-09-30 20:17:48.669";"NST_correctLoc";"22";"0";"FINISHED";"LEFT";"success";"365";"0";"2014-09-30 20:17:47.418";"3";;;;;;;;;;;;;;;;;;;;;;;;;;;;;;;;;;;;;;;;;;;;;;;;;;;;;;;;;;;;;;;
"C1445516";"1996";;"Mac OS X";"Rachel's Experiment (SCIAT)";"1.0";"1";"1";"1";"1";"1";"1";"2014-09-30 20:11:25.422";"2014-09-30 20:27:25.684";"1";"0";"0";"1";"0";"117";"116";"module.training_block3.exec-5375.GoNoGo3";;;;;;;;;;;;;;;;;;;;;;;;;"1251";"2014-09-30 20:17:51.202";"NST_correctLoc";"17";"0";"FINISHED";"LEFT";"success";"594";"0";"2014-09-30 20:17:49.950";"2";;;;;;;;;;;;;;;;;;;;;;;;;;;;;;;;;;;;;;;;;;;;;;;;;;;;;;;;;;;;;;;
"C1445516";"1996";;"Mac OS X";"Rachel's Experiment (SCIAT)";"1.0";"1";"1";"1";"1";"1";"1";"2014-09-30 20:11:25.422";"2014-09-30 20:27:25.684";"1";"0";"0";"1";"0";"118";"117";"module.training_block3.exec-5375.GoNoGo3";;;;;;;;;;;;;;;;;;;;;;;;;"1251";"2014-09-30 20:17:53.739";"NST_correctLoc";"8";"1";"FINISHED";"RIGHT";"success";"568";"0";"2014-09-30 20:17:52.488";"1";;;;;;;;;;;;;;;;;;;;;;;;;;;;;;;;;;;;;;;;;;;;;;;;;;;;;;;;;;;;;;;
"C1445516";"1996";;"Mac OS X";"Rachel's Experiment (SCIAT)";"1.0";"1";"1";"1";"1";"1";"1";"2014-09-30 20:11:25.422";"2014-09-30 20:27:25.684";"1";"0";"0";"1";"0";"119";"118";"module.training_block3.exec-5375.GoNoGo3";;;;;;;;;;;;;;;;;;;;;;;;;"1251";"2014-09-30 20:17:56.271";"NST_correctLoc";"32";"0";"FINISHED";"LEFT";"success";"500";"0";"2014-09-30 20:17:55.020";"3";;;;;;;;;;;;;;;;;;;;;;;;;;;;;;;;;;;;;;;;;;;;;;;;;;;;;;;;;;;;;;;
"C1445516";"1996";;"Mac OS X";"Rachel's Experiment (SCIAT)";"1.0";"1";"1";"1";"1";"1";"1";"2014-09-30 20:11:25.422";"2014-09-30 20:27:25.684";"1";"0";"0";"1";"0";"120";"119";"module.training_block3.exec-5375.GoNoGo3";;;;;;;;;;;;;;;;;;;;;;;;;"1251";"2014-09-30 20:17:58.805";"NST_correctLoc";"23";"0";"FINISHED";"LEFT";"success";"382";"0";"2014-09-30 20:17:57.553";"3";;;;;;;;;;;;;;;;;;;;;;;;;;;;;;;;;;;;;;;;;;;;;;;;;;;;;;;;;;;;;;;
"C1445516";"1996";;"Mac OS X";"Rachel's Experiment (SCIAT)";"1.0";"1";"1";"1";"1";"1";"1";"2014-09-30 20:11:25.422";"2014-09-30 20:27:25.684";"1";"0";"0";"1";"0";"121";"120";"module.training_block3.exec-5375.GoNoGo3";;;;;;;;;;;;;;;;;;;;;;;;;"1251";"2014-09-30 20:18:01.334";"NST_correctLoc";"2";"1";"FINISHED";"RIGHT";"success";"997";"0";"2014-09-30 20:18:00.082";"1";;;;;;;;;;;;;;;;;;;;;;;;;;;;;;;;;;;;;;;;;;;;;;;;;;;;;;;;;;;;;;;
"C1445516";"1996";;"Mac OS X";"Rachel's Experiment (SCIAT)";"1.0";"1";"1";"1";"1";"1";"1";"2014-09-30 20:11:25.422";"2014-09-30 20:27:25.684";"1";"0";"0";"1";"0";"122";"121";"module.training_block3.exec-5375.GoNoGo3";;;;;;;;;;;;;;;;;;;;;;;;;"1251";"2014-09-30 20:18:03.864";"NST_correctLoc";"24";"1";"FINISHED";"RIGHT";"success";"698";"0";"2014-09-30 20:18:02.612";"3";;;;;;;;;;;;;;;;;;;;;;;;;;;;;;;;;;;;;;;;;;;;;;;;;;;;;;;;;;;;;;;
"C1445516";"1996";;"Mac OS X";"Rachel's Experiment (SCIAT)";"1.0";"1";"1";"1";"1";"1";"1";"2014-09-30 20:11:25.422";"2014-09-30 20:27:25.684";"1";"0";"0";"1";"0";"123";"122";"module.training_block3.exec-5375.GoNoGo3";;;;;;;;;;;;;;;;;;;;;;;;;"1251";"2014-09-30 20:18:06.394";"NST_correctLoc";"25";"1";"FINISHED";"RIGHT";"success";"472";"0";"2014-09-30 20:18:05.143";"3";;;;;;;;;;;;;;;;;;;;;;;;;;;;;;;;;;;;;;;;;;;;;;;;;;;;;;;;;;;;;;;
"C1445516";"1996";;"Mac OS X";"Rachel's Experiment (SCIAT)";"1.0";"1";"1";"1";"1";"1";"1";"2014-09-30 20:11:25.422";"2014-09-30 20:27:25.684";"1";"0";"0";"1";"0";"124";"123";"module.training_block4.exec-3381.GoNoGo4";;;;;;;;;;;;;;;;;;;;;;;;;;;;;;;;;;;;;"1251";"2014-09-30 20:18:18.987";"NST_correctLoc";"13";"0";"FINISHED";"LEFT";"success";"697";"0";"2014-09-30 20:18:17.736";"2";;;;;;;;;;;;;;;;;;;;;;;;;;;;;;;;;;;;;;;;;;;;;;;;;;;
"C1445516";"1996";;"Mac OS X";"Rachel's Experiment (SCIAT)";"1.0";"1";"1";"1";"1";"1";"1";"2014-09-30 20:11:25.422";"2014-09-30 20:27:25.684";"1";"0";"0";"1";"0";"125";"124";"module.training_block4.exec-3381.GoNoGo4";;;;;;;;;;;;;;;;;;;;;;;;;;;;;;;;;;;;;"1251";"2014-09-30 20:18:21.516";"NST_correctLoc";"5";"1";"FINISHED";"RIGHT";"success";"457";"0";"2014-09-30 20:18:20.265";"1";;;;;;;;;;;;;;;;;;;;;;;;;;;;;;;;;;;;;;;;;;;;;;;;;;;
"C1445516";"1996";;"Mac OS X";"Rachel's Experiment (SCIAT)";"1.0";"1";"1";"1";"1";"1";"1";"2014-09-30 20:11:25.422";"2014-09-30 20:27:25.684";"1";"0";"0";"1";"0";"126";"125";"module.training_block4.exec-3381.GoNoGo4";;;;;;;;;;;;;;;;;;;;;;;;;;;;;;;;;;;;;"1251";"2014-09-30 20:18:24.050";"NST_correctLoc";"4";"0";"FINISHED";"LEFT";"success";"386";"0";"2014-09-30 20:18:22.798";"1";;;;;;;;;;;;;;;;;;;;;;;;;;;;;;;;;;;;;;;;;;;;;;;;;;;
"C1445516";"1996";;"Mac OS X";"Rachel's Experiment (SCIAT)";"1.0";"1";"1";"1";"1";"1";"1";"2014-09-30 20:11:25.422";"2014-09-30 20:27:25.684";"1";"0";"0";"1";"0";"127";"126";"module.training_block4.exec-3381.GoNoGo4";;;;;;;;;;;;;;;;;;;;;;;;;;;;;;;;;;;;;"1251";"2014-09-30 20:18:26.579";"NST_correctLoc";"7";"1";"FINISHED";"RIGHT";"success";"568";"0";"2014-09-30 20:18:25.328";"1";;;;;;;;;;;;;;;;;;;;;;;;;;;;;;;;;;;;;;;;;;;;;;;;;;;
"C1445516";"1996";;"Mac OS X";"Rachel's Experiment (SCIAT)";"1.0";"1";"1";"1";"1";"1";"1";"2014-09-30 20:11:25.422";"2014-09-30 20:27:25.684";"1";"0";"0";"1";"0";"128";"127";"module.training_block4.exec-3381.GoNoGo4";;;;;;;;;;;;;;;;;;;;;;;;;;;;;;;;;;;;;"1251";"2014-09-30 20:18:29.111";"NST_correctLoc";"32";"1";"FINISHED";"RIGHT";"success";"701";"0";"2014-09-30 20:18:27.859";"3";;;;;;;;;;;;;;;;;;;;;;;;;;;;;;;;;;;;;;;;;;;;;;;;;;;
"C1445516";"1996";;"Mac OS X";"Rachel's Experiment (SCIAT)";"1.0";"1";"1";"1";"1";"1";"1";"2014-09-30 20:11:25.422";"2014-09-30 20:27:25.684";"1";"0";"0";"1";"0";"129";"128";"module.training_block4.exec-3381.GoNoGo4";;;;;;;;;;;;;;;;;;;;;;;;;;;;;;;;;;;;;"1251";"2014-09-30 20:18:31.644";"NST_correctLoc";"16";"1";"FINISHED";"RIGHT";"success";"711";"0";"2014-09-30 20:18:30.393";"2";;;;;;;;;;;;;;;;;;;;;;;;;;;;;;;;;;;;;;;;;;;;;;;;;;;
"C1445516";"1996";;"Mac OS X";"Rachel's Experiment (SCIAT)";"1.0";"1";"1";"1";"1";"1";"1";"2014-09-30 20:11:25.422";"2014-09-30 20:27:25.684";"1";"0";"0";"1";"0";"130";"129";"module.training_block4.exec-3381.GoNoGo4";;;;;;;;;;;;;;;;;;;;;;;;;;;;;;;;;;;;;"1251";"2014-09-30 20:18:34.172";"NST_correctLoc";"23";"0";"FINISHED";"LEFT";"success";"390";"0";"2014-09-30 20:18:32.921";"3";;;;;;;;;;;;;;;;;;;;;;;;;;;;;;;;;;;;;;;;;;;;;;;;;;;
"C1445516";"1996";;"Mac OS X";"Rachel's Experiment (SCIAT)";"1.0";"1";"1";"1";"1";"1";"1";"2014-09-30 20:11:25.422";"2014-09-30 20:27:25.684";"1";"0";"0";"1";"0";"131";"130";"module.training_block4.exec-3381.GoNoGo4";;;;;;;;;;;;;;;;;;;;;;;;;;;;;;;;;;;;;"1251";"2014-09-30 20:18:36.706";"NST_correctLoc";"26";"1";"FINISHED";"RIGHT";"success";"384";"0";"2014-09-30 20:18:35.455";"3";;;;;;;;;;;;;;;;;;;;;;;;;;;;;;;;;;;;;;;;;;;;;;;;;;;
"C1445516";"1996";;"Mac OS X";"Rachel's Experiment (SCIAT)";"1.0";"1";"1";"1";"1";"1";"1";"2014-09-30 20:11:25.422";"2014-09-30 20:27:25.684";"1";"0";"0";"1";"0";"132";"131";"module.training_block4.exec-3381.GoNoGo4";;;;;;;;;;;;;;;;;;;;;;;;;;;;;;;;;;;;;"1251";"2014-09-30 20:18:39.236";"NST_correctLoc";"18";"0";"FINISHED";"LEFT";"success";"335";"0";"2014-09-30 20:18:37.984";"3";;;;;;;;;;;;;;;;;;;;;;;;;;;;;;;;;;;;;;;;;;;;;;;;;;;
"C1445516";"1996";;"Mac OS X";"Rachel's Experiment (SCIAT)";"1.0";"1";"1";"1";"1";"1";"1";"2014-09-30 20:11:25.422";"2014-09-30 20:27:25.684";"1";"0";"0";"1";"0";"133";"132";"module.training_block4.exec-3381.GoNoGo4";;;;;;;;;;;;;;;;;;;;;;;;;;;;;;;;;;;;;"1250";"2014-09-30 20:18:41.765";"NST_correctLoc";"1";"1";"FINISHED";"RIGHT";"success";"437";"0";"2014-09-30 20:18:40.514";"1";;;;;;;;;;;;;;;;;;;;;;;;;;;;;;;;;;;;;;;;;;;;;;;;;;;
"C1445516";"1996";;"Mac OS X";"Rachel's Experiment (SCIAT)";"1.0";"1";"1";"1";"1";"1";"1";"2014-09-30 20:11:25.422";"2014-09-30 20:27:25.684";"1";"0";"0";"1";"0";"134";"133";"module.training_block4.exec-3381.GoNoGo4";;;;;;;;;;;;;;;;;;;;;;;;;;;;;;;;;;;;;"1251";"2014-09-30 20:18:44.303";"NST_miss";"27";"1";"FINISHED";"NONE";"failure";"0";"0";"2014-09-30 20:18:43.052";"3";;;;;;;;;;;;;;;;;;;;;;;;;;;;;;;;;;;;;;;;;;;;;;;;;;;
"C1445516";"1996";;"Mac OS X";"Rachel's Experiment (SCIAT)";"1.0";"1";"1";"1";"1";"1";"1";"2014-09-30 20:11:25.422";"2014-09-30 20:27:25.684";"1";"0";"0";"1";"0";"135";"134";"module.training_block4.exec-3381.GoNoGo4";;;;;;;;;;;;;;;;;;;;;;;;;;;;;;;;;;;;;"1251";"2014-09-30 20:18:46.831";"NST_miss";"21";"1";"FINISHED";"NONE";"failure";"0";"0";"2014-09-30 20:18:45.580";"3";;;;;;;;;;;;;;;;;;;;;;;;;;;;;;;;;;;;;;;;;;;;;;;;;;;
"C1445516";"1996";;"Mac OS X";"Rachel's Experiment (SCIAT)";"1.0";"1";"1";"1";"1";"1";"1";"2014-09-30 20:11:25.422";"2014-09-30 20:27:25.684";"1";"0";"0";"1";"0";"136";"135";"module.training_block4.exec-3381.GoNoGo4";;;;;;;;;;;;;;;;;;;;;;;;;;;;;;;;;;;;;"1251";"2014-09-30 20:18:49.361";"NST_correctLoc";"10";"0";"FINISHED";"LEFT";"success";"360";"0";"2014-09-30 20:18:48.110";"2";;;;;;;;;;;;;;;;;;;;;;;;;;;;;;;;;;;;;;;;;;;;;;;;;;;
"C1445516";"1996";;"Mac OS X";"Rachel's Experiment (SCIAT)";"1.0";"1";"1";"1";"1";"1";"1";"2014-09-30 20:11:25.422";"2014-09-30 20:27:25.684";"1";"0";"0";"1";"0";"137";"136";"module.training_block4.exec-3381.GoNoGo4";;;;;;;;;;;;;;;;;;;;;;;;;;;;;;;;;;;;;"1251";"2014-09-30 20:18:51.889";"NST_correctLoc";"34";"1";"FINISHED";"RIGHT";"success";"384";"0";"2014-09-30 20:18:50.638";"3";;;;;;;;;;;;;;;;;;;;;;;;;;;;;;;;;;;;;;;;;;;;;;;;;;;
"C1445516";"1996";;"Mac OS X";"Rachel's Experiment (SCIAT)";"1.0";"1";"1";"1";"1";"1";"1";"2014-09-30 20:11:25.422";"2014-09-30 20:27:25.684";"1";"0";"0";"1";"0";"138";"137";"module.training_block4.exec-3381.GoNoGo4";;;;;;;;;;;;;;;;;;;;;;;;;;;;;;;;;;;;;"1250";"2014-09-30 20:18:54.424";"NST_correctLoc";"0";"0";"FINISHED";"LEFT";"success";"488";"0";"2014-09-30 20:18:53.173";"1";;;;;;;;;;;;;;;;;;;;;;;;;;;;;;;;;;;;;;;;;;;;;;;;;;;
"C1445516";"1996";;"Mac OS X";"Rachel's Experiment (SCIAT)";"1.0";"1";"1";"1";"1";"1";"1";"2014-09-30 20:11:25.422";"2014-09-30 20:27:25.684";"1";"0";"0";"1";"0";"139";"138";"module.training_block4.exec-3381.GoNoGo4";;;;;;;;;;;;;;;;;;;;;;;;;;;;;;;;;;;;;"1251";"2014-09-30 20:18:56.957";"NST_correctLoc";"35";"1";"FINISHED";"RIGHT";"success";"628";"0";"2014-09-30 20:18:55.706";"3";;;;;;;;;;;;;;;;;;;;;;;;;;;;;;;;;;;;;;;;;;;;;;;;;;;
"C1445516";"1996";;"Mac OS X";"Rachel's Experiment (SCIAT)";"1.0";"1";"1";"1";"1";"1";"1";"2014-09-30 20:11:25.422";"2014-09-30 20:27:25.684";"1";"0";"0";"1";"0";"140";"139";"module.training_block4.exec-3381.GoNoGo4";;;;;;;;;;;;;;;;;;;;;;;;;;;;;;;;;;;;;"1251";"2014-09-30 20:18:59.488";"NST_correctLoc";"28";"0";"FINISHED";"LEFT";"success";"449";"0";"2014-09-30 20:18:58.237";"3";;;;;;;;;;;;;;;;;;;;;;;;;;;;;;;;;;;;;;;;;;;;;;;;;;;
"C1445516";"1996";;"Mac OS X";"Rachel's Experiment (SCIAT)";"1.0";"1";"1";"1";"1";"1";"1";"2014-09-30 20:11:25.422";"2014-09-30 20:27:25.684";"1";"0";"0";"1";"0";"141";"140";"module.training_block4.exec-3381.GoNoGo4";;;;;;;;;;;;;;;;;;;;;;;;;;;;;;;;;;;;;"1250";"2014-09-30 20:19:02.016";"NST_correctLoc";"6";"1";"FINISHED";"RIGHT";"success";"576";"0";"2014-09-30 20:19:00.766";"1";;;;;;;;;;;;;;;;;;;;;;;;;;;;;;;;;;;;;;;;;;;;;;;;;;;
"C1445516";"1996";;"Mac OS X";"Rachel's Experiment (SCIAT)";"1.0";"1";"1";"1";"1";"1";"1";"2014-09-30 20:11:25.422";"2014-09-30 20:27:25.684";"1";"0";"0";"1";"0";"142";"141";"module.training_block4.exec-3381.GoNoGo4";;;;;;;;;;;;;;;;;;;;;;;;;;;;;;;;;;;;;"1251";"2014-09-30 20:19:04.545";"NST_correctLoc";"29";"0";"FINISHED";"LEFT";"success";"655";"0";"2014-09-30 20:19:03.293";"3";;;;;;;;;;;;;;;;;;;;;;;;;;;;;;;;;;;;;;;;;;;;;;;;;;;
"C1445516";"1996";;"Mac OS X";"Rachel's Experiment (SCIAT)";"1.0";"1";"1";"1";"1";"1";"1";"2014-09-30 20:11:25.422";"2014-09-30 20:27:25.684";"1";"0";"0";"1";"0";"143";"142";"module.training_block4.exec-3381.GoNoGo4";;;;;;;;;;;;;;;;;;;;;;;;;;;;;;;;;;;;;"1250";"2014-09-30 20:19:07.080";"NST_correctLoc";"25";"1";"FINISHED";"RIGHT";"success";"791";"0";"2014-09-30 20:19:05.830";"3";;;;;;;;;;;;;;;;;;;;;;;;;;;;;;;;;;;;;;;;;;;;;;;;;;;
"C1445516";"1996";;"Mac OS X";"Rachel's Experiment (SCIAT)";"1.0";"1";"1";"1";"1";"1";"1";"2014-09-30 20:11:25.422";"2014-09-30 20:27:25.684";"1";"0";"0";"1";"0";"144";"143";"module.training_block4.exec-3381.GoNoGo4";;;;;;;;;;;;;;;;;;;;;;;;;;;;;;;;;;;;;"1251";"2014-09-30 20:19:09.613";"NST_correctLoc";"11";"1";"FINISHED";"RIGHT";"success";"691";"0";"2014-09-30 20:19:08.361";"2";;;;;;;;;;;;;;;;;;;;;;;;;;;;;;;;;;;;;;;;;;;;;;;;;;;
"C1445516";"1996";;"Mac OS X";"Rachel's Experiment (SCIAT)";"1.0";"1";"1";"1";"1";"1";"1";"2014-09-30 20:11:25.422";"2014-09-30 20:27:25.684";"1";"0";"0";"1";"0";"145";"144";"module.training_block4.exec-3381.GoNoGo4";;;;;;;;;;;;;;;;;;;;;;;;;;;;;;;;;;;;;"1250";"2014-09-30 20:19:12.141";"NST_correctLoc";"3";"0";"FINISHED";"LEFT";"success";"466";"0";"2014-09-30 20:19:10.891";"1";;;;;;;;;;;;;;;;;;;;;;;;;;;;;;;;;;;;;;;;;;;;;;;;;;;
"C1445516";"1996";;"Mac OS X";"Rachel's Experiment (SCIAT)";"1.0";"1";"1";"1";"1";"1";"1";"2014-09-30 20:11:25.422";"2014-09-30 20:27:25.684";"1";"0";"0";"1";"0";"146";"145";"module.training_block4.exec-3381.GoNoGo4";;;;;;;;;;;;;;;;;;;;;;;;;;;;;;;;;;;;;"1251";"2014-09-30 20:19:14.670";"NST_correctLoc";"20";"1";"FINISHED";"RIGHT";"success";"609";"0";"2014-09-30 20:19:13.419";"3";;;;;;;;;;;;;;;;;;;;;;;;;;;;;;;;;;;;;;;;;;;;;;;;;;;
"C1445516";"1996";;"Mac OS X";"Rachel's Experiment (SCIAT)";"1.0";"1";"1";"1";"1";"1";"1";"2014-09-30 20:11:25.422";"2014-09-30 20:27:25.684";"1";"0";"0";"1";"0";"147";"146";"module.training_block4.exec-3381.GoNoGo4";;;;;;;;;;;;;;;;;;;;;;;;;;;;;;;;;;;;;"1251";"2014-09-30 20:19:17.198";"NST_correctLoc";"2";"1";"FINISHED";"RIGHT";"success";"489";"0";"2014-09-30 20:19:15.947";"1";;;;;;;;;;;;;;;;;;;;;;;;;;;;;;;;;;;;;;;;;;;;;;;;;;;
"C1445516";"1996";;"Mac OS X";"Rachel's Experiment (SCIAT)";"1.0";"1";"1";"1";"1";"1";"1";"2014-09-30 20:11:25.422";"2014-09-30 20:27:25.684";"1";"0";"0";"1";"0";"148";"147";"module.training_block4.exec-3381.GoNoGo4";;;;;;;;;;;;;;;;;;;;;;;;;;;;;;;;;;;;;"1251";"2014-09-30 20:19:19.728";"NST_correctLoc";"9";"1";"FINISHED";"RIGHT";"success";"407";"0";"2014-09-30 20:19:18.476";"2";;;;;;;;;;;;;;;;;;;;;;;;;;;;;;;;;;;;;;;;;;;;;;;;;;;
"C1445516";"1996";;"Mac OS X";"Rachel's Experiment (SCIAT)";"1.0";"1";"1";"1";"1";"1";"1";"2014-09-30 20:11:25.422";"2014-09-30 20:27:25.684";"1";"0";"0";"1";"0";"149";"148";"module.training_block4.exec-3381.GoNoGo4";;;;;;;;;;;;;;;;;;;;;;;;;;;;;;;;;;;;;"1250";"2014-09-30 20:19:22.258";"NST_correctLoc";"14";"0";"FINISHED";"LEFT";"success";"636";"0";"2014-09-30 20:19:21.007";"2";;;;;;;;;;;;;;;;;;;;;;;;;;;;;;;;;;;;;;;;;;;;;;;;;;;
"C1445516";"1996";;"Mac OS X";"Rachel's Experiment (SCIAT)";"1.0";"1";"1";"1";"1";"1";"1";"2014-09-30 20:11:25.422";"2014-09-30 20:27:25.684";"1";"0";"0";"1";"0";"150";"149";"module.training_block4.exec-3381.GoNoGo4";;;;;;;;;;;;;;;;;;;;;;;;;;;;;;;;;;;;;"1251";"2014-09-30 20:19:24.789";"NST_correctLoc";"30";"1";"FINISHED";"RIGHT";"success";"386";"0";"2014-09-30 20:19:23.537";"3";;;;;;;;;;;;;;;;;;;;;;;;;;;;;;;;;;;;;;;;;;;;;;;;;;;
"C1445516";"1996";;"Mac OS X";"Rachel's Experiment (SCIAT)";"1.0";"1";"1";"1";"1";"1";"1";"2014-09-30 20:11:25.422";"2014-09-30 20:27:25.684";"1";"0";"0";"1";"0";"151";"150";"module.training_block4.exec-3381.GoNoGo4";;;;;;;;;;;;;;;;;;;;;;;;;;;;;;;;;;;;;"1251";"2014-09-30 20:19:27.313";"NST_correctLoc";"31";"1";"FINISHED";"RIGHT";"success";"446";"0";"2014-09-30 20:19:26.061";"3";;;;;;;;;;;;;;;;;;;;;;;;;;;;;;;;;;;;;;;;;;;;;;;;;;;
"C1445516";"1996";;"Mac OS X";"Rachel's Experiment (SCIAT)";"1.0";"1";"1";"1";"1";"1";"1";"2014-09-30 20:11:25.422";"2014-09-30 20:27:25.684";"1";"0";"0";"1";"0";"152";"151";"module.training_block4.exec-3381.GoNoGo4";;;;;;;;;;;;;;;;;;;;;;;;;;;;;;;;;;;;;"1251";"2014-09-30 20:19:29.847";"NST_correctLoc";"24";"0";"FINISHED";"LEFT";"success";"343";"0";"2014-09-30 20:19:28.596";"3";;;;;;;;;;;;;;;;;;;;;;;;;;;;;;;;;;;;;;;;;;;;;;;;;;;
"C1445516";"1996";;"Mac OS X";"Rachel's Experiment (SCIAT)";"1.0";"1";"1";"1";"1";"1";"1";"2014-09-30 20:11:25.422";"2014-09-30 20:27:25.684";"1";"0";"0";"1";"0";"153";"152";"module.training_block4.exec-3381.GoNoGo4";;;;;;;;;;;;;;;;;;;;;;;;;;;;;;;;;;;;;"1250";"2014-09-30 20:19:32.374";"NST_correctLoc";"22";"1";"FINISHED";"RIGHT";"success";"751";"0";"2014-09-30 20:19:31.124";"3";;;;;;;;;;;;;;;;;;;;;;;;;;;;;;;;;;;;;;;;;;;;;;;;;;;
"C1445516";"1996";;"Mac OS X";"Rachel's Experiment (SCIAT)";"1.0";"1";"1";"1";"1";"1";"1";"2014-09-30 20:11:25.422";"2014-09-30 20:27:25.684";"1";"0";"0";"1";"0";"154";"153";"module.training_block4.exec-3381.GoNoGo4";;;;;;;;;;;;;;;;;;;;;;;;;;;;;;;;;;;;;"1251";"2014-09-30 20:19:34.910";"NST_correctLoc";"15";"0";"FINISHED";"LEFT";"success";"655";"0";"2014-09-30 20:19:33.659";"2";;;;;;;;;;;;;;;;;;;;;;;;;;;;;;;;;;;;;;;;;;;;;;;;;;;
"C1445516";"1996";;"Mac OS X";"Rachel's Experiment (SCIAT)";"1.0";"1";"1";"1";"1";"1";"1";"2014-09-30 20:11:25.422";"2014-09-30 20:27:25.684";"1";"0";"0";"1";"0";"155";"154";"module.training_block4.exec-3381.GoNoGo4";;;;;;;;;;;;;;;;;;;;;;;;;;;;;;;;;;;;;"1250";"2014-09-30 20:19:37.437";"NST_correctLoc";"19";"0";"FINISHED";"LEFT";"success";"431";"0";"2014-09-30 20:19:36.187";"3";;;;;;;;;;;;;;;;;;;;;;;;;;;;;;;;;;;;;;;;;;;;;;;;;;;
"C1445516";"1996";;"Mac OS X";"Rachel's Experiment (SCIAT)";"1.0";"1";"1";"1";"1";"1";"1";"2014-09-30 20:11:25.422";"2014-09-30 20:27:25.684";"1";"0";"0";"1";"0";"156";"155";"module.training_block4.exec-3381.GoNoGo4";;;;;;;;;;;;;;;;;;;;;;;;;;;;;;;;;;;;;"1251";"2014-09-30 20:19:39.965";"NST_correctLoc";"12";"1";"FINISHED";"RIGHT";"success";"472";"0";"2014-09-30 20:19:38.714";"2";;;;;;;;;;;;;;;;;;;;;;;;;;;;;;;;;;;;;;;;;;;;;;;;;;;
"C1445516";"1996";;"Mac OS X";"Rachel's Experiment (SCIAT)";"1.0";"1";"1";"1";"1";"1";"1";"2014-09-30 20:11:25.422";"2014-09-30 20:27:25.684";"1";"0";"0";"1";"0";"157";"156";"module.training_block4.exec-3381.GoNoGo4";;;;;;;;;;;;;;;;;;;;;;;;;;;;;;;;;;;;;"1250";"2014-09-30 20:19:42.493";"NST_correctLoc";"33";"1";"FINISHED";"RIGHT";"success";"408";"0";"2014-09-30 20:19:41.242";"3";;;;;;;;;;;;;;;;;;;;;;;;;;;;;;;;;;;;;;;;;;;;;;;;;;;
"C1445516";"1996";;"Mac OS X";"Rachel's Experiment (SCIAT)";"1.0";"1";"1";"1";"1";"1";"1";"2014-09-30 20:11:25.422";"2014-09-30 20:27:25.684";"1";"0";"0";"1";"0";"158";"157";"module.training_block4.exec-3381.GoNoGo4";;;;;;;;;;;;;;;;;;;;;;;;;;;;;;;;;;;;;"1251";"2014-09-30 20:19:45.018";"NST_correctLoc";"8";"1";"FINISHED";"RIGHT";"success";"634";"0";"2014-09-30 20:19:43.767";"1";;;;;;;;;;;;;;;;;;;;;;;;;;;;;;;;;;;;;;;;;;;;;;;;;;;
"C1445516";"1996";;"Mac OS X";"Rachel's Experiment (SCIAT)";"1.0";"1";"1";"1";"1";"1";"1";"2014-09-30 20:11:25.422";"2014-09-30 20:27:25.684";"1";"0";"0";"1";"0";"159";"158";"module.training_block4.exec-3381.GoNoGo4";;;;;;;;;;;;;;;;;;;;;;;;;;;;;;;;;;;;;"1251";"2014-09-30 20:19:47.544";"NST_correctLoc";"17";"1";"FINISHED";"RIGHT";"success";"445";"0";"2014-09-30 20:19:46.292";"2";;;;;;;;;;;;;;;;;;;;;;;;;;;;;;;;;;;;;;;;;;;;;;;;;;;
"C1445516";"1996";;"Mac OS X";"Rachel's Experiment (SCIAT)";"1.0";"1";"1";"1";"1";"1";"1";"2014-09-30 20:11:25.422";"2014-09-30 20:27:25.684";"1";"0";"0";"1";"0";"160";"159";"module.IAT_practice1.exec-6545.IAT_Practice1";;;;;;;;;;;;;;;;;;;;;;;;;;;;;;;;;;;;;;;;;;;;;;;;;;;;;;;;;;;;;;;;;;;;;;;;;;;;;;;;;;;;;;;;;;"1772";"2014-09-30 20:20:33.333";"FINISHED";"UNPLEASANT";"success";"825";"2014-09-30 20:20:31.560";"IAT_UPpractice.csv";"1";"disgusting"
"C1445516";"1996";;"Mac OS X";"Rachel's Experiment (SCIAT)";"1.0";"1";"1";"1";"1";"1";"1";"2014-09-30 20:11:25.422";"2014-09-30 20:27:25.684";"1";"0";"0";"1";"0";"161";"160";"module.IAT_practice1.exec-6545.IAT_Practice1";;;;;;;;;;;;;;;;;;;;;;;;;;;;;;;;;;;;;;;;;;;;;;;;;;;;;;;;;;;;;;;;;;;;;;;;;;;;;;;;;;;;;;;;;;"1706";"2014-09-30 20:20:35.091";"FINISHED";"NEUTRAL";"success";"849";"2014-09-30 20:20:33.384";"IAT_UPpractice.csv";"2";"average"
"C1445516";"1996";;"Mac OS X";"Rachel's Experiment (SCIAT)";"1.0";"1";"1";"1";"1";"1";"1";"2014-09-30 20:11:25.422";"2014-09-30 20:27:25.684";"1";"0";"0";"1";"0";"162";"161";"module.IAT_practice1.exec-6545.IAT_Practice1";;;;;;;;;;;;;;;;;;;;;;;;;;;;;;;;;;;;;;;;;;;;;;;;;;;;;;;;;;;;;;;;;;;;;;;;;;;;;;;;;;;;;;;;;;"1706";"2014-09-30 20:20:36.833";"FINISHED";"UNPLEASANT";"success";"1026";"2014-09-30 20:20:35.127";"IAT_UPpractice.csv";"1";"nasty"
"C1445516";"1996";;"Mac OS X";"Rachel's Experiment (SCIAT)";"1.0";"1";"1";"1";"1";"1";"1";"2014-09-30 20:11:25.422";"2014-09-30 20:27:25.684";"1";"0";"0";"1";"0";"163";"162";"module.IAT_practice1.exec-6545.IAT_Practice1";;;;;;;;;;;;;;;;;;;;;;;;;;;;;;;;;;;;;;;;;;;;;;;;;;;;;;;;;;;;;;;;;;;;;;;;;;;;;;;;;;;;;;;;;;"1706";"2014-09-30 20:20:38.572";"FINISHED";"UNPLEASANT";"success";"967";"2014-09-30 20:20:36.866";"IAT_UPpractice.csv";"1";"awful"
"C1445516";"1996";;"Mac OS X";"Rachel's Experiment (SCIAT)";"1.0";"1";"1";"1";"1";"1";"1";"2014-09-30 20:11:25.422";"2014-09-30 20:27:25.684";"1";"0";"0";"1";"0";"164";"163";"module.IAT_practice1.exec-6545.IAT_Practice1";;;;;;;;;;;;;;;;;;;;;;;;;;;;;;;;;;;;;;;;;;;;;;;;;;;;;;;;;;;;;;;;;;;;;;;;;;;;;;;;;;;;;;;;;;"3014";"2014-09-30 20:20:41.615";"FINISHED";"NONE";"failure";"0";"2014-09-30 20:20:38.600";"IAT_UPpractice.csv";"2";"ordinary"
"C1445516";"1996";;"Mac OS X";"Rachel's Experiment (SCIAT)";"1.0";"1";"1";"1";"1";"1";"1";"2014-09-30 20:11:25.422";"2014-09-30 20:27:25.684";"1";"0";"0";"1";"0";"165";"164";"module.IAT_practice1.exec-6545.IAT_Practice1";;;;;;;;;;;;;;;;;;;;;;;;;;;;;;;;;;;;;;;;;;;;;;;;;;;;;;;;;;;;;;;;;;;;;;;;;;;;;;;;;;;;;;;;;;"1705";"2014-09-30 20:20:43.367";"FINISHED";"NEUTRAL";"success";"1178";"2014-09-30 20:20:41.662";"IAT_UPpractice.csv";"2";"general"
"C1445516";"1996";;"Mac OS X";"Rachel's Experiment (SCIAT)";"1.0";"1";"1";"1";"1";"1";"1";"2014-09-30 20:11:25.422";"2014-09-30 20:27:25.684";"1";"0";"0";"1";"0";"166";"165";"module.IAT_practice1.exec-6545.IAT_Practice1";;;;;;;;;;;;;;;;;;;;;;;;;;;;;;;;;;;;;;;;;;;;;;;;;;;;;;;;;;;;;;;;;;;;;;;;;;;;;;;;;;;;;;;;;;"3005";"2014-09-30 20:20:46.419";"FINISHED";"NONE";"failure";"0";"2014-09-30 20:20:43.414";"IAT_UPpractice.csv";"2";"moderate"
"C1445516";"1996";;"Mac OS X";"Rachel's Experiment (SCIAT)";"1.0";"1";"1";"1";"1";"1";"1";"2014-09-30 20:11:25.422";"2014-09-30 20:27:25.684";"1";"0";"0";"1";"0";"167";"166";"module.IAT_practice1.exec-6545.IAT_Practice1";;;;;;;;;;;;;;;;;;;;;;;;;;;;;;;;;;;;;;;;;;;;;;;;;;;;;;;;;;;;;;;;;;;;;;;;;;;;;;;;;;;;;;;;;;"1706";"2014-09-30 20:20:48.148";"FINISHED";"UNPLEASANT";"success";"862";"2014-09-30 20:20:46.442";"IAT_UPpractice.csv";"1";"awful"
"C1445516";"1996";;"Mac OS X";"Rachel's Experiment (SCIAT)";"1.0";"1";"1";"1";"1";"1";"1";"2014-09-30 20:11:25.422";"2014-09-30 20:27:25.684";"1";"0";"0";"1";"0";"168";"167";"module.IAT_practice1.exec-6545.IAT_Practice1";;;;;;;;;;;;;;;;;;;;;;;;;;;;;;;;;;;;;;;;;;;;;;;;;;;;;;;;;;;;;;;;;;;;;;;;;;;;;;;;;;;;;;;;;;"1706";"2014-09-30 20:20:49.878";"FINISHED";"NEUTRAL";"success";"724";"2014-09-30 20:20:48.172";"IAT_UPpractice.csv";"2";"general"
"C1445516";"1996";;"Mac OS X";"Rachel's Experiment (SCIAT)";"1.0";"1";"1";"1";"1";"1";"1";"2014-09-30 20:11:25.422";"2014-09-30 20:27:25.684";"1";"0";"0";"1";"0";"169";"168";"module.IAT_practice1.exec-6545.IAT_Practice1";;;;;;;;;;;;;;;;;;;;;;;;;;;;;;;;;;;;;;;;;;;;;;;;;;;;;;;;;;;;;;;;;;;;;;;;;;;;;;;;;;;;;;;;;;"1706";"2014-09-30 20:20:51.663";"FINISHED";"UNPLEASANT";"success";"803";"2014-09-30 20:20:49.957";"IAT_UPpractice.csv";"1";"revolting"
"C1445516";"1996";;"Mac OS X";"Rachel's Experiment (SCIAT)";"1.0";"1";"1";"1";"1";"1";"1";"2014-09-30 20:11:25.422";"2014-09-30 20:27:25.684";"1";"0";"0";"1";"0";"170";"169";"module.IAT_practice1.exec-6545.IAT_Practice1";;;;;;;;;;;;;;;;;;;;;;;;;;;;;;;;;;;;;;;;;;;;;;;;;;;;;;;;;;;;;;;;;;;;;;;;;;;;;;;;;;;;;;;;;;"1705";"2014-09-30 20:20:53.398";"FINISHED";"NEUTRAL";"success";"747";"2014-09-30 20:20:51.693";"IAT_UPpractice.csv";"2";"undefined"
"C1445516";"1996";;"Mac OS X";"Rachel's Experiment (SCIAT)";"1.0";"1";"1";"1";"1";"1";"1";"2014-09-30 20:11:25.422";"2014-09-30 20:27:25.684";"1";"0";"0";"1";"0";"171";"170";"module.IAT_practice1.exec-6545.IAT_Practice1";;;;;;;;;;;;;;;;;;;;;;;;;;;;;;;;;;;;;;;;;;;;;;;;;;;;;;;;;;;;;;;;;;;;;;;;;;;;;;;;;;;;;;;;;;"1706";"2014-09-30 20:20:55.131";"FINISHED";"UNPLEASANT";"success";"791";"2014-09-30 20:20:53.425";"IAT_UPpractice.csv";"1";"bad"
"C1445516";"1996";;"Mac OS X";"Rachel's Experiment (SCIAT)";"1.0";"1";"1";"1";"1";"1";"1";"2014-09-30 20:11:25.422";"2014-09-30 20:27:25.684";"1";"0";"0";"1";"0";"172";"171";"module.IAT_practice1.exec-6545.IAT_Practice1";;;;;;;;;;;;;;;;;;;;;;;;;;;;;;;;;;;;;;;;;;;;;;;;;;;;;;;;;;;;;;;;;;;;;;;;;;;;;;;;;;;;;;;;;;"1706";"2014-09-30 20:20:56.927";"FINISHED";"UNPLEASANT";"success";"667";"2014-09-30 20:20:55.220";"IAT_UPpractice.csv";"1";"horrible"
"C1445516";"1996";;"Mac OS X";"Rachel's Experiment (SCIAT)";"1.0";"1";"1";"1";"1";"1";"1";"2014-09-30 20:11:25.422";"2014-09-30 20:27:25.684";"1";"0";"0";"1";"0";"173";"172";"module.IAT_practice1.exec-6545.IAT_Practice1";;;;;;;;;;;;;;;;;;;;;;;;;;;;;;;;;;;;;;;;;;;;;;;;;;;;;;;;;;;;;;;;;;;;;;;;;;;;;;;;;;;;;;;;;;"1706";"2014-09-30 20:20:58.653";"FINISHED";"UNPLEASANT";"success";"660";"2014-09-30 20:20:56.947";"IAT_UPpractice.csv";"1";"nasty"
"C1445516";"1996";;"Mac OS X";"Rachel's Experiment (SCIAT)";"1.0";"1";"1";"1";"1";"1";"1";"2014-09-30 20:11:25.422";"2014-09-30 20:27:25.684";"1";"0";"0";"1";"0";"174";"173";"module.IAT_practice1.exec-6545.IAT_Practice1";;;;;;;;;;;;;;;;;;;;;;;;;;;;;;;;;;;;;;;;;;;;;;;;;;;;;;;;;;;;;;;;;;;;;;;;;;;;;;;;;;;;;;;;;;"1706";"2014-09-30 20:21:00.381";"FINISHED";"UNPLEASANT";"success";"644";"2014-09-30 20:20:58.675";"IAT_UPpractice.csv";"1";"disgusting"
"C1445516";"1996";;"Mac OS X";"Rachel's Experiment (SCIAT)";"1.0";"1";"1";"1";"1";"1";"1";"2014-09-30 20:11:25.422";"2014-09-30 20:27:25.684";"1";"0";"0";"1";"0";"175";"174";"module.IAT_practice1.exec-6545.IAT_Practice1";;;;;;;;;;;;;;;;;;;;;;;;;;;;;;;;;;;;;;;;;;;;;;;;;;;;;;;;;;;;;;;;;;;;;;;;;;;;;;;;;;;;;;;;;;"1705";"2014-09-30 20:21:02.186";"FINISHED";"NEUTRAL";"success";"1062";"2014-09-30 20:21:00.481";"IAT_UPpractice.csv";"2";"adequate"
"C1445516";"1996";;"Mac OS X";"Rachel's Experiment (SCIAT)";"1.0";"1";"1";"1";"1";"1";"1";"2014-09-30 20:11:25.422";"2014-09-30 20:27:25.684";"1";"0";"0";"1";"0";"176";"175";"module.IAT_practice1.exec-6545.IAT_Practice1";;;;;;;;;;;;;;;;;;;;;;;;;;;;;;;;;;;;;;;;;;;;;;;;;;;;;;;;;;;;;;;;;;;;;;;;;;;;;;;;;;;;;;;;;;"1706";"2014-09-30 20:21:03.914";"FINISHED";"UNPLEASANT";"success";"742";"2014-09-30 20:21:02.208";"IAT_UPpractice.csv";"1";"bad"
"C1445516";"1996";;"Mac OS X";"Rachel's Experiment (SCIAT)";"1.0";"1";"1";"1";"1";"1";"1";"2014-09-30 20:11:25.422";"2014-09-30 20:27:25.684";"1";"0";"0";"1";"0";"177";"176";"module.IAT_practice1.exec-6545.IAT_Practice1";;;;;;;;;;;;;;;;;;;;;;;;;;;;;;;;;;;;;;;;;;;;;;;;;;;;;;;;;;;;;;;;;;;;;;;;;;;;;;;;;;;;;;;;;;"1714";"2014-09-30 20:21:05.652";"FINISHED";"NEUTRAL";"failure";"630";"2014-09-30 20:21:03.937";"IAT_UPpractice.csv";"1";"revolting"
"C1445516";"1996";;"Mac OS X";"Rachel's Experiment (SCIAT)";"1.0";"1";"1";"1";"1";"1";"1";"2014-09-30 20:11:25.422";"2014-09-30 20:27:25.684";"1";"0";"0";"1";"0";"178";"177";"module.IAT_practice1.exec-6545.IAT_Practice1";;;;;;;;;;;;;;;;;;;;;;;;;;;;;;;;;;;;;;;;;;;;;;;;;;;;;;;;;;;;;;;;;;;;;;;;;;;;;;;;;;;;;;;;;;"3005";"2014-09-30 20:21:08.679";"FINISHED";"NONE";"failure";"0";"2014-09-30 20:21:05.674";"IAT_UPpractice.csv";"2";"ordinary"
"C1445516";"1996";;"Mac OS X";"Rachel's Experiment (SCIAT)";"1.0";"1";"1";"1";"1";"1";"1";"2014-09-30 20:11:25.422";"2014-09-30 20:27:25.684";"1";"0";"0";"1";"0";"179";"178";"module.IAT_practice1.exec-6545.IAT_Practice1";;;;;;;;;;;;;;;;;;;;;;;;;;;;;;;;;;;;;;;;;;;;;;;;;;;;;;;;;;;;;;;;;;;;;;;;;;;;;;;;;;;;;;;;;;"1705";"2014-09-30 20:21:10.406";"FINISHED";"NEUTRAL";"success";"986";"2014-09-30 20:21:08.700";"IAT_UPpractice.csv";"2";"adequate"
"C1445516";"1996";;"Mac OS X";"Rachel's Experiment (SCIAT)";"1.0";"1";"1";"1";"1";"1";"1";"2014-09-30 20:11:25.422";"2014-09-30 20:27:25.684";"1";"0";"0";"1";"0";"180";"179";"module.IAT_practice1.exec-6545.IAT_Practice1";;;;;;;;;;;;;;;;;;;;;;;;;;;;;;;;;;;;;;;;;;;;;;;;;;;;;;;;;;;;;;;;;;;;;;;;;;;;;;;;;;;;;;;;;;"1705";"2014-09-30 20:21:12.131";"FINISHED";"NEUTRAL";"success";"764";"2014-09-30 20:21:10.426";"IAT_UPpractice.csv";"2";"moderate"
"C1445516";"1996";;"Mac OS X";"Rachel's Experiment (SCIAT)";"1.0";"1";"1";"1";"1";"1";"1";"2014-09-30 20:11:25.422";"2014-09-30 20:27:25.684";"1";"0";"0";"1";"0";"181";"180";"module.IAT_practice1.exec-6545.IAT_Practice1";;;;;;;;;;;;;;;;;;;;;;;;;;;;;;;;;;;;;;;;;;;;;;;;;;;;;;;;;;;;;;;;;;;;;;;;;;;;;;;;;;;;;;;;;;"1706";"2014-09-30 20:21:13.861";"FINISHED";"NEUTRAL";"success";"859";"2014-09-30 20:21:12.155";"IAT_UPpractice.csv";"2";"average"
"C1445516";"1996";;"Mac OS X";"Rachel's Experiment (SCIAT)";"1.0";"1";"1";"1";"1";"1";"1";"2014-09-30 20:11:25.422";"2014-09-30 20:27:25.684";"1";"0";"0";"1";"0";"182";"181";"module.IAT_practice1.exec-6545.IAT_Practice1";;;;;;;;;;;;;;;;;;;;;;;;;;;;;;;;;;;;;;;;;;;;;;;;;;;;;;;;;;;;;;;;;;;;;;;;;;;;;;;;;;;;;;;;;;"1706";"2014-09-30 20:21:15.590";"FINISHED";"NEUTRAL";"success";"1242";"2014-09-30 20:21:13.884";"IAT_UPpractice.csv";"2";"undefined"
"C1445516";"1996";;"Mac OS X";"Rachel's Experiment (SCIAT)";"1.0";"1";"1";"1";"1";"1";"1";"2014-09-30 20:11:25.422";"2014-09-30 20:27:25.684";"1";"0";"0";"1";"0";"183";"182";"module.IAT_practice1.exec-6545.IAT_Practice1";;;;;;;;;;;;;;;;;;;;;;;;;;;;;;;;;;;;;;;;;;;;;;;;;;;;;;;;;;;;;;;;;;;;;;;;;;;;;;;;;;;;;;;;;;"1706";"2014-09-30 20:21:17.322";"FINISHED";"UNPLEASANT";"success";"694";"2014-09-30 20:21:15.616";"IAT_UPpractice.csv";"1";"horrible"
"C1445516";"1996";;"Mac OS X";"Rachel's Experiment (SCIAT)";"1.0";"1";"1";"1";"1";"1";"1";"2014-09-30 20:11:25.422";"2014-09-30 20:27:25.684";"1";"0";"0";"1";"0";"184";"183";"module.IAT_Block1.exec-1691.IAT_block1";;;;;;;;;;;;;;;;;;;;;;;;;;;;;;;;;;;;;;;;;;;;;;;;;;;;;;;;;;;;;;;;;;;;;;"1708";"2014-09-30 20:21:45.855";"FINISHED";"NEUTRAL";"success";"1307";"2014-09-30 20:21:44.147";"IAT_UPUP.csv";"2";"ordinary";;;;;;;;;;;;;;;;;;;;
"C1445516";"1996";;"Mac OS X";"Rachel's Experiment (SCIAT)";"1.0";"1";"1";"1";"1";"1";"1";"2014-09-30 20:11:25.422";"2014-09-30 20:27:25.684";"1";"0";"0";"1";"0";"185";"184";"module.IAT_Block1.exec-1691.IAT_block1";;;;;;;;;;;;;;;;;;;;;;;;;;;;;;;;;;;;;;;;;;;;;;;;;;;;;;;;;;;;;;;;;;;;;;"1705";"2014-09-30 20:21:47.787";"FINISHED";"UNPLEASANT";"success";"1172";"2014-09-30 20:21:46.082";"IAT_UPUP.csv";"1";"A2";;;;;;;;;;;;;;;;;;;;
"C1445516";"1996";;"Mac OS X";"Rachel's Experiment (SCIAT)";"1.0";"1";"1";"1";"1";"1";"1";"2014-09-30 20:11:25.422";"2014-09-30 20:27:25.684";"1";"0";"0";"1";"0";"186";"185";"module.IAT_Block1.exec-1691.IAT_block1";;;;;;;;;;;;;;;;;;;;;;;;;;;;;;;;;;;;;;;;;;;;;;;;;;;;;;;;;;;;;;;;;;;;;;"1704";"2014-09-30 20:21:49.509";"FINISHED";"NEUTRAL";"success";"1073";"2014-09-30 20:21:47.805";"IAT_UPUP.csv";"2";"moderate";;;;;;;;;;;;;;;;;;;;
"C1445516";"1996";;"Mac OS X";"Rachel's Experiment (SCIAT)";"1.0";"1";"1";"1";"1";"1";"1";"2014-09-30 20:11:25.422";"2014-09-30 20:27:25.684";"1";"0";"0";"1";"0";"187";"186";"module.IAT_Block1.exec-1691.IAT_block1";;;;;;;;;;;;;;;;;;;;;;;;;;;;;;;;;;;;;;;;;;;;;;;;;;;;;;;;;;;;;;;;;;;;;;"1706";"2014-09-30 20:21:51.241";"FINISHED";"UNPLEASANT";"success";"582";"2014-09-30 20:21:49.535";"IAT_UPUP.csv";"1";"A4";;;;;;;;;;;;;;;;;;;;
"C1445516";"1996";;"Mac OS X";"Rachel's Experiment (SCIAT)";"1.0";"1";"1";"1";"1";"1";"1";"2014-09-30 20:11:25.422";"2014-09-30 20:27:25.684";"1";"0";"0";"1";"0";"188";"187";"module.IAT_Block1.exec-1691.IAT_block1";;;;;;;;;;;;;;;;;;;;;;;;;;;;;;;;;;;;;;;;;;;;;;;;;;;;;;;;;;;;;;;;;;;;;;"3003";"2014-09-30 20:21:54.271";"FINISHED";"NONE";"failure";"0";"2014-09-30 20:21:51.268";"IAT_UPUP.csv";"2";"ordinary";;;;;;;;;;;;;;;;;;;;
"C1445516";"1996";;"Mac OS X";"Rachel's Experiment (SCIAT)";"1.0";"1";"1";"1";"1";"1";"1";"2014-09-30 20:11:25.422";"2014-09-30 20:27:25.684";"1";"0";"0";"1";"0";"189";"188";"module.IAT_Block1.exec-1691.IAT_block1";;;;;;;;;;;;;;;;;;;;;;;;;;;;;;;;;;;;;;;;;;;;;;;;;;;;;;;;;;;;;;;;;;;;;;"1704";"2014-09-30 20:21:55.996";"FINISHED";"UNPLEASANT";"success";"654";"2014-09-30 20:21:54.291";"IAT_UPUP.csv";"1";"A4";;;;;;;;;;;;;;;;;;;;
"C1445516";"1996";;"Mac OS X";"Rachel's Experiment (SCIAT)";"1.0";"1";"1";"1";"1";"1";"1";"2014-09-30 20:11:25.422";"2014-09-30 20:27:25.684";"1";"0";"0";"1";"0";"190";"189";"module.IAT_Block1.exec-1691.IAT_block1";;;;;;;;;;;;;;;;;;;;;;;;;;;;;;;;;;;;;;;;;;;;;;;;;;;;;;;;;;;;;;;;;;;;;;"3005";"2014-09-30 20:21:59.023";"FINISHED";"NONE";"failure";"0";"2014-09-30 20:21:56.017";"IAT_UPUP.csv";"1";"horrible";;;;;;;;;;;;;;;;;;;;
"C1445516";"1996";;"Mac OS X";"Rachel's Experiment (SCIAT)";"1.0";"1";"1";"1";"1";"1";"1";"2014-09-30 20:11:25.422";"2014-09-30 20:27:25.684";"1";"0";"0";"1";"0";"191";"190";"module.IAT_Block1.exec-1691.IAT_block1";;;;;;;;;;;;;;;;;;;;;;;;;;;;;;;;;;;;;;;;;;;;;;;;;;;;;;;;;;;;;;;;;;;;;;"1704";"2014-09-30 20:22:00.749";"FINISHED";"UNPLEASANT";"success";"1173";"2014-09-30 20:21:59.044";"IAT_UPUP.csv";"1";"horrible";;;;;;;;;;;;;;;;;;;;
"C1445516";"1996";;"Mac OS X";"Rachel's Experiment (SCIAT)";"1.0";"1";"1";"1";"1";"1";"1";"2014-09-30 20:11:25.422";"2014-09-30 20:27:25.684";"1";"0";"0";"1";"0";"192";"191";"module.IAT_Block1.exec-1691.IAT_block1";;;;;;;;;;;;;;;;;;;;;;;;;;;;;;;;;;;;;;;;;;;;;;;;;;;;;;;;;;;;;;;;;;;;;;"1705";"2014-09-30 20:22:02.482";"FINISHED";"NEUTRAL";"success";"817";"2014-09-30 20:22:00.777";"IAT_UPUP.csv";"2";"moderate";;;;;;;;;;;;;;;;;;;;
"C1445516";"1996";;"Mac OS X";"Rachel's Experiment (SCIAT)";"1.0";"1";"1";"1";"1";"1";"1";"2014-09-30 20:11:25.422";"2014-09-30 20:27:25.684";"1";"0";"0";"1";"0";"193";"192";"module.IAT_Block1.exec-1691.IAT_block1";;;;;;;;;;;;;;;;;;;;;;;;;;;;;;;;;;;;;;;;;;;;;;;;;;;;;;;;;;;;;;;;;;;;;;"1706";"2014-09-30 20:22:04.271";"FINISHED";"UNPLEASANT";"success";"580";"2014-09-30 20:22:02.565";"IAT_UPUP.csv";"1";"A5";;;;;;;;;;;;;;;;;;;;
"C1445516";"1996";;"Mac OS X";"Rachel's Experiment (SCIAT)";"1.0";"1";"1";"1";"1";"1";"1";"2014-09-30 20:11:25.422";"2014-09-30 20:27:25.684";"1";"0";"0";"1";"0";"194";"193";"module.IAT_Block1.exec-1691.IAT_block1";;;;;;;;;;;;;;;;;;;;;;;;;;;;;;;;;;;;;;;;;;;;;;;;;;;;;;;;;;;;;;;;;;;;;;"1706";"2014-09-30 20:22:05.996";"FINISHED";"NEUTRAL";"success";"943";"2014-09-30 20:22:04.290";"IAT_UPUP.csv";"2";"general";;;;;;;;;;;;;;;;;;;;
"C1445516";"1996";;"Mac OS X";"Rachel's Experiment (SCIAT)";"1.0";"1";"1";"1";"1";"1";"1";"2014-09-30 20:11:25.422";"2014-09-30 20:27:25.684";"1";"0";"0";"1";"0";"195";"194";"module.IAT_Block1.exec-1691.IAT_block1";;;;;;;;;;;;;;;;;;;;;;;;;;;;;;;;;;;;;;;;;;;;;;;;;;;;;;;;;;;;;;;;;;;;;;"1706";"2014-09-30 20:22:07.724";"FINISHED";"NEUTRAL";"success";"800";"2014-09-30 20:22:06.018";"IAT_UPUP.csv";"2";"adequate";;;;;;;;;;;;;;;;;;;;
"C1445516";"1996";;"Mac OS X";"Rachel's Experiment (SCIAT)";"1.0";"1";"1";"1";"1";"1";"1";"2014-09-30 20:11:25.422";"2014-09-30 20:27:25.684";"1";"0";"0";"1";"0";"196";"195";"module.IAT_Block1.exec-1691.IAT_block1";;;;;;;;;;;;;;;;;;;;;;;;;;;;;;;;;;;;;;;;;;;;;;;;;;;;;;;;;;;;;;;;;;;;;;"1706";"2014-09-30 20:22:09.518";"FINISHED";"UNPLEASANT";"success";"613";"2014-09-30 20:22:07.812";"IAT_UPUP.csv";"1";"A3";;;;;;;;;;;;;;;;;;;;
"C1445516";"1996";;"Mac OS X";"Rachel's Experiment (SCIAT)";"1.0";"1";"1";"1";"1";"1";"1";"2014-09-30 20:11:25.422";"2014-09-30 20:27:25.684";"1";"0";"0";"1";"0";"197";"196";"module.IAT_Block1.exec-1691.IAT_block1";;;;;;;;;;;;;;;;;;;;;;;;;;;;;;;;;;;;;;;;;;;;;;;;;;;;;;;;;;;;;;;;;;;;;;"1706";"2014-09-30 20:22:11.247";"FINISHED";"NEUTRAL";"success";"949";"2014-09-30 20:22:09.540";"IAT_UPUP.csv";"2";"moderate";;;;;;;;;;;;;;;;;;;;
"C1445516";"1996";;"Mac OS X";"Rachel's Experiment (SCIAT)";"1.0";"1";"1";"1";"1";"1";"1";"2014-09-30 20:11:25.422";"2014-09-30 20:27:25.684";"1";"0";"0";"1";"0";"198";"197";"module.IAT_Block1.exec-1691.IAT_block1";;;;;;;;;;;;;;;;;;;;;;;;;;;;;;;;;;;;;;;;;;;;;;;;;;;;;;;;;;;;;;;;;;;;;;"1703";"2014-09-30 20:22:12.972";"FINISHED";"UNPLEASANT";"success";"589";"2014-09-30 20:22:11.268";"IAT_UPUP.csv";"1";"A4";;;;;;;;;;;;;;;;;;;;
"C1445516";"1996";;"Mac OS X";"Rachel's Experiment (SCIAT)";"1.0";"1";"1";"1";"1";"1";"1";"2014-09-30 20:11:25.422";"2014-09-30 20:27:25.684";"1";"0";"0";"1";"0";"199";"198";"module.IAT_Block1.exec-1691.IAT_block1";;;;;;;;;;;;;;;;;;;;;;;;;;;;;;;;;;;;;;;;;;;;;;;;;;;;;;;;;;;;;;;;;;;;;;"1706";"2014-09-30 20:22:14.699";"FINISHED";"NEUTRAL";"failure";"1319";"2014-09-30 20:22:12.993";"IAT_UPUP.csv";"1";"nasty";;;;;;;;;;;;;;;;;;;;
"C1445516";"1996";;"Mac OS X";"Rachel's Experiment (SCIAT)";"1.0";"1";"1";"1";"1";"1";"1";"2014-09-30 20:11:25.422";"2014-09-30 20:27:25.684";"1";"0";"0";"1";"0";"200";"199";"module.IAT_Block1.exec-1691.IAT_block1";;;;;;;;;;;;;;;;;;;;;;;;;;;;;;;;;;;;;;;;;;;;;;;;;;;;;;;;;;;;;;;;;;;;;;"1705";"2014-09-30 20:22:16.431";"FINISHED";"NEUTRAL";"success";"1115";"2014-09-30 20:22:14.725";"IAT_UPUP.csv";"2";"undefined";;;;;;;;;;;;;;;;;;;;
"C1445516";"1996";;"Mac OS X";"Rachel's Experiment (SCIAT)";"1.0";"1";"1";"1";"1";"1";"1";"2014-09-30 20:11:25.422";"2014-09-30 20:27:25.684";"1";"0";"0";"1";"0";"201";"200";"module.IAT_Block1.exec-1691.IAT_block1";;;;;;;;;;;;;;;;;;;;;;;;;;;;;;;;;;;;;;;;;;;;;;;;;;;;;;;;;;;;;;;;;;;;;;"1705";"2014-09-30 20:22:18.159";"FINISHED";"NEUTRAL";"success";"594";"2014-09-30 20:22:16.454";"IAT_UPUP.csv";"2";"undefined";;;;;;;;;;;;;;;;;;;;
"C1445516";"1996";;"Mac OS X";"Rachel's Experiment (SCIAT)";"1.0";"1";"1";"1";"1";"1";"1";"2014-09-30 20:11:25.422";"2014-09-30 20:27:25.684";"1";"0";"0";"1";"0";"202";"201";"module.IAT_Block1.exec-1691.IAT_block1";;;;;;;;;;;;;;;;;;;;;;;;;;;;;;;;;;;;;;;;;;;;;;;;;;;;;;;;;;;;;;;;;;;;;;"1705";"2014-09-30 20:22:19.886";"FINISHED";"UNPLEASANT";"success";"587";"2014-09-30 20:22:18.181";"IAT_UPUP.csv";"1";"A3";;;;;;;;;;;;;;;;;;;;
"C1445516";"1996";;"Mac OS X";"Rachel's Experiment (SCIAT)";"1.0";"1";"1";"1";"1";"1";"1";"2014-09-30 20:11:25.422";"2014-09-30 20:27:25.684";"1";"0";"0";"1";"0";"203";"202";"module.IAT_Block1.exec-1691.IAT_block1";;;;;;;;;;;;;;;;;;;;;;;;;;;;;;;;;;;;;;;;;;;;;;;;;;;;;;;;;;;;;;;;;;;;;;"1706";"2014-09-30 20:22:21.619";"FINISHED";"NEUTRAL";"success";"872";"2014-09-30 20:22:19.912";"IAT_UPUP.csv";"2";"adequate";;;;;;;;;;;;;;;;;;;;
"C1445516";"1996";;"Mac OS X";"Rachel's Experiment (SCIAT)";"1.0";"1";"1";"1";"1";"1";"1";"2014-09-30 20:11:25.422";"2014-09-30 20:27:25.684";"1";"0";"0";"1";"0";"204";"203";"module.IAT_Block1.exec-1691.IAT_block1";;;;;;;;;;;;;;;;;;;;;;;;;;;;;;;;;;;;;;;;;;;;;;;;;;;;;;;;;;;;;;;;;;;;;;"1705";"2014-09-30 20:22:23.344";"FINISHED";"UNPLEASANT";"success";"736";"2014-09-30 20:22:21.639";"IAT_UPUP.csv";"1";"A5";;;;;;;;;;;;;;;;;;;;
"C1445516";"1996";;"Mac OS X";"Rachel's Experiment (SCIAT)";"1.0";"1";"1";"1";"1";"1";"1";"2014-09-30 20:11:25.422";"2014-09-30 20:27:25.684";"1";"0";"0";"1";"0";"205";"204";"module.IAT_Block1.exec-1691.IAT_block1";;;;;;;;;;;;;;;;;;;;;;;;;;;;;;;;;;;;;;;;;;;;;;;;;;;;;;;;;;;;;;;;;;;;;;"1706";"2014-09-30 20:22:25.074";"FINISHED";"NEUTRAL";"success";"888";"2014-09-30 20:22:23.368";"IAT_UPUP.csv";"2";"average";;;;;;;;;;;;;;;;;;;;
"C1445516";"1996";;"Mac OS X";"Rachel's Experiment (SCIAT)";"1.0";"1";"1";"1";"1";"1";"1";"2014-09-30 20:11:25.422";"2014-09-30 20:27:25.684";"1";"0";"0";"1";"0";"206";"205";"module.IAT_Block1.exec-1691.IAT_block1";;;;;;;;;;;;;;;;;;;;;;;;;;;;;;;;;;;;;;;;;;;;;;;;;;;;;;;;;;;;;;;;;;;;;;"1707";"2014-09-30 20:22:26.860";"FINISHED";"UNPLEASANT";"success";"695";"2014-09-30 20:22:25.153";"IAT_UPUP.csv";"1";"A1";;;;;;;;;;;;;;;;;;;;
"C1445516";"1996";;"Mac OS X";"Rachel's Experiment (SCIAT)";"1.0";"1";"1";"1";"1";"1";"1";"2014-09-30 20:11:25.422";"2014-09-30 20:27:25.684";"1";"0";"0";"1";"0";"207";"206";"module.IAT_Block1.exec-1691.IAT_block1";;;;;;;;;;;;;;;;;;;;;;;;;;;;;;;;;;;;;;;;;;;;;;;;;;;;;;;;;;;;;;;;;;;;;;"1706";"2014-09-30 20:22:28.595";"FINISHED";"UNPLEASANT";"success";"503";"2014-09-30 20:22:26.888";"IAT_UPUP.csv";"1";"A2";;;;;;;;;;;;;;;;;;;;
"C1445516";"1996";;"Mac OS X";"Rachel's Experiment (SCIAT)";"1.0";"1";"1";"1";"1";"1";"1";"2014-09-30 20:11:25.422";"2014-09-30 20:27:25.684";"1";"0";"0";"1";"0";"208";"207";"module.IAT_Block1.exec-1691.IAT_block1";;;;;;;;;;;;;;;;;;;;;;;;;;;;;;;;;;;;;;;;;;;;;;;;;;;;;;;;;;;;;;;;;;;;;;"1706";"2014-09-30 20:22:30.323";"FINISHED";"UNPLEASANT";"success";"1119";"2014-09-30 20:22:28.617";"IAT_UPUP.csv";"1";"nasty";;;;;;;;;;;;;;;;;;;;
"C1445516";"1996";;"Mac OS X";"Rachel's Experiment (SCIAT)";"1.0";"1";"1";"1";"1";"1";"1";"2014-09-30 20:11:25.422";"2014-09-30 20:27:25.684";"1";"0";"0";"1";"0";"209";"208";"module.IAT_Block1.exec-1691.IAT_block1";;;;;;;;;;;;;;;;;;;;;;;;;;;;;;;;;;;;;;;;;;;;;;;;;;;;;;;;;;;;;;;;;;;;;;"1705";"2014-09-30 20:22:32.109";"FINISHED";"UNPLEASANT";"success";"708";"2014-09-30 20:22:30.403";"IAT_UPUP.csv";"1";"A0";;;;;;;;;;;;;;;;;;;;
"C1445516";"1996";;"Mac OS X";"Rachel's Experiment (SCIAT)";"1.0";"1";"1";"1";"1";"1";"1";"2014-09-30 20:11:25.422";"2014-09-30 20:27:25.684";"1";"0";"0";"1";"0";"210";"209";"module.IAT_Block1.exec-1691.IAT_block1";;;;;;;;;;;;;;;;;;;;;;;;;;;;;;;;;;;;;;;;;;;;;;;;;;;;;;;;;;;;;;;;;;;;;;"1706";"2014-09-30 20:22:33.838";"FINISHED";"NEUTRAL";"success";"610";"2014-09-30 20:22:32.132";"IAT_UPUP.csv";"2";"ordinary";;;;;;;;;;;;;;;;;;;;
"C1445516";"1996";;"Mac OS X";"Rachel's Experiment (SCIAT)";"1.0";"1";"1";"1";"1";"1";"1";"2014-09-30 20:11:25.422";"2014-09-30 20:27:25.684";"1";"0";"0";"1";"0";"211";"210";"module.IAT_Block1.exec-1691.IAT_block1";;;;;;;;;;;;;;;;;;;;;;;;;;;;;;;;;;;;;;;;;;;;;;;;;;;;;;;;;;;;;;;;;;;;;;"1706";"2014-09-30 20:22:35.567";"FINISHED";"UNPLEASANT";"success";"801";"2014-09-30 20:22:33.861";"IAT_UPUP.csv";"1";"A4";;;;;;;;;;;;;;;;;;;;
"C1445516";"1996";;"Mac OS X";"Rachel's Experiment (SCIAT)";"1.0";"1";"1";"1";"1";"1";"1";"2014-09-30 20:11:25.422";"2014-09-30 20:27:25.684";"1";"0";"0";"1";"0";"212";"211";"module.IAT_Block1.exec-1691.IAT_block1";;;;;;;;;;;;;;;;;;;;;;;;;;;;;;;;;;;;;;;;;;;;;;;;;;;;;;;;;;;;;;;;;;;;;;"1706";"2014-09-30 20:22:37.306";"FINISHED";"UNPLEASANT";"success";"695";"2014-09-30 20:22:35.600";"IAT_UPUP.csv";"1";"A2";;;;;;;;;;;;;;;;;;;;
"C1445516";"1996";;"Mac OS X";"Rachel's Experiment (SCIAT)";"1.0";"1";"1";"1";"1";"1";"1";"2014-09-30 20:11:25.422";"2014-09-30 20:27:25.684";"1";"0";"0";"1";"0";"213";"212";"module.IAT_Block1.exec-1691.IAT_block1";;;;;;;;;;;;;;;;;;;;;;;;;;;;;;;;;;;;;;;;;;;;;;;;;;;;;;;;;;;;;;;;;;;;;;"1706";"2014-09-30 20:22:39.033";"FINISHED";"UNPLEASANT";"success";"1023";"2014-09-30 20:22:37.327";"IAT_UPUP.csv";"1";"revolting";;;;;;;;;;;;;;;;;;;;
"C1445516";"1996";;"Mac OS X";"Rachel's Experiment (SCIAT)";"1.0";"1";"1";"1";"1";"1";"1";"2014-09-30 20:11:25.422";"2014-09-30 20:27:25.684";"1";"0";"0";"1";"0";"214";"213";"module.IAT_Block1.exec-1691.IAT_block1";;;;;;;;;;;;;;;;;;;;;;;;;;;;;;;;;;;;;;;;;;;;;;;;;;;;;;;;;;;;;;;;;;;;;;"1704";"2014-09-30 20:22:40.759";"FINISHED";"UNPLEASANT";"success";"512";"2014-09-30 20:22:39.055";"IAT_UPUP.csv";"1";"disgusting";;;;;;;;;;;;;;;;;;;;
"C1445516";"1996";;"Mac OS X";"Rachel's Experiment (SCIAT)";"1.0";"1";"1";"1";"1";"1";"1";"2014-09-30 20:11:25.422";"2014-09-30 20:27:25.684";"1";"0";"0";"1";"0";"215";"214";"module.IAT_Block1.exec-1691.IAT_block1";;;;;;;;;;;;;;;;;;;;;;;;;;;;;;;;;;;;;;;;;;;;;;;;;;;;;;;;;;;;;;;;;;;;;;"1703";"2014-09-30 20:22:42.480";"FINISHED";"UNPLEASANT";"success";"718";"2014-09-30 20:22:40.776";"IAT_UPUP.csv";"1";"revolting";;;;;;;;;;;;;;;;;;;;
"C1445516";"1996";;"Mac OS X";"Rachel's Experiment (SCIAT)";"1.0";"1";"1";"1";"1";"1";"1";"2014-09-30 20:11:25.422";"2014-09-30 20:27:25.684";"1";"0";"0";"1";"0";"216";"215";"module.IAT_Block1.exec-1691.IAT_block1";;;;;;;;;;;;;;;;;;;;;;;;;;;;;;;;;;;;;;;;;;;;;;;;;;;;;;;;;;;;;;;;;;;;;;"1706";"2014-09-30 20:22:44.211";"FINISHED";"UNPLEASANT";"success";"1045";"2014-09-30 20:22:42.504";"IAT_UPUP.csv";"1";"awful";;;;;;;;;;;;;;;;;;;;
"C1445516";"1996";;"Mac OS X";"Rachel's Experiment (SCIAT)";"1.0";"1";"1";"1";"1";"1";"1";"2014-09-30 20:11:25.422";"2014-09-30 20:27:25.684";"1";"0";"0";"1";"0";"217";"216";"module.IAT_Block1.exec-1691.IAT_block1";;;;;;;;;;;;;;;;;;;;;;;;;;;;;;;;;;;;;;;;;;;;;;;;;;;;;;;;;;;;;;;;;;;;;;"1706";"2014-09-30 20:22:45.939";"FINISHED";"UNPLEASANT";"success";"589";"2014-09-30 20:22:44.233";"IAT_UPUP.csv";"1";"A2";;;;;;;;;;;;;;;;;;;;
"C1445516";"1996";;"Mac OS X";"Rachel's Experiment (SCIAT)";"1.0";"1";"1";"1";"1";"1";"1";"2014-09-30 20:11:25.422";"2014-09-30 20:27:25.684";"1";"0";"0";"1";"0";"218";"217";"module.IAT_Block1.exec-1691.IAT_block1";;;;;;;;;;;;;;;;;;;;;;;;;;;;;;;;;;;;;;;;;;;;;;;;;;;;;;;;;;;;;;;;;;;;;;"1706";"2014-09-30 20:22:47.666";"FINISHED";"UNPLEASANT";"success";"526";"2014-09-30 20:22:45.960";"IAT_UPUP.csv";"1";"A5";;;;;;;;;;;;;;;;;;;;
"C1445516";"1996";;"Mac OS X";"Rachel's Experiment (SCIAT)";"1.0";"1";"1";"1";"1";"1";"1";"2014-09-30 20:11:25.422";"2014-09-30 20:27:25.684";"1";"0";"0";"1";"0";"219";"218";"module.IAT_Block1.exec-1691.IAT_block1";;;;;;;;;;;;;;;;;;;;;;;;;;;;;;;;;;;;;;;;;;;;;;;;;;;;;;;;;;;;;;;;;;;;;;"1706";"2014-09-30 20:22:49.393";"FINISHED";"NEUTRAL";"success";"791";"2014-09-30 20:22:47.687";"IAT_UPUP.csv";"2";"adequate";;;;;;;;;;;;;;;;;;;;
"C1445516";"1996";;"Mac OS X";"Rachel's Experiment (SCIAT)";"1.0";"1";"1";"1";"1";"1";"1";"2014-09-30 20:11:25.422";"2014-09-30 20:27:25.684";"1";"0";"0";"1";"0";"220";"219";"module.IAT_Block1.exec-1691.IAT_block1";;;;;;;;;;;;;;;;;;;;;;;;;;;;;;;;;;;;;;;;;;;;;;;;;;;;;;;;;;;;;;;;;;;;;;"1704";"2014-09-30 20:22:51.117";"FINISHED";"NEUTRAL";"success";"681";"2014-09-30 20:22:49.413";"IAT_UPUP.csv";"2";"adequate";;;;;;;;;;;;;;;;;;;;
"C1445516";"1996";;"Mac OS X";"Rachel's Experiment (SCIAT)";"1.0";"1";"1";"1";"1";"1";"1";"2014-09-30 20:11:25.422";"2014-09-30 20:27:25.684";"1";"0";"0";"1";"0";"221";"220";"module.IAT_Block1.exec-1691.IAT_block1";;;;;;;;;;;;;;;;;;;;;;;;;;;;;;;;;;;;;;;;;;;;;;;;;;;;;;;;;;;;;;;;;;;;;;"1705";"2014-09-30 20:22:52.843";"FINISHED";"NEUTRAL";"success";"643";"2014-09-30 20:22:51.138";"IAT_UPUP.csv";"2";"ordinary";;;;;;;;;;;;;;;;;;;;
"C1445516";"1996";;"Mac OS X";"Rachel's Experiment (SCIAT)";"1.0";"1";"1";"1";"1";"1";"1";"2014-09-30 20:11:25.422";"2014-09-30 20:27:25.684";"1";"0";"0";"1";"0";"222";"221";"module.IAT_Block1.exec-1691.IAT_block1";;;;;;;;;;;;;;;;;;;;;;;;;;;;;;;;;;;;;;;;;;;;;;;;;;;;;;;;;;;;;;;;;;;;;;"1704";"2014-09-30 20:22:54.570";"FINISHED";"UNPLEASANT";"success";"555";"2014-09-30 20:22:52.865";"IAT_UPUP.csv";"1";"A0";;;;;;;;;;;;;;;;;;;;
"C1445516";"1996";;"Mac OS X";"Rachel's Experiment (SCIAT)";"1.0";"1";"1";"1";"1";"1";"1";"2014-09-30 20:11:25.422";"2014-09-30 20:27:25.684";"1";"0";"0";"1";"0";"223";"222";"module.IAT_Block1.exec-1691.IAT_block1";;;;;;;;;;;;;;;;;;;;;;;;;;;;;;;;;;;;;;;;;;;;;;;;;;;;;;;;;;;;;;;;;;;;;;"1705";"2014-09-30 20:22:56.295";"FINISHED";"NEUTRAL";"success";"1064";"2014-09-30 20:22:54.589";"IAT_UPUP.csv";"2";"undefined";;;;;;;;;;;;;;;;;;;;
"C1445516";"1996";;"Mac OS X";"Rachel's Experiment (SCIAT)";"1.0";"1";"1";"1";"1";"1";"1";"2014-09-30 20:11:25.422";"2014-09-30 20:27:25.684";"1";"0";"0";"1";"0";"224";"223";"module.IAT_Block1.exec-1691.IAT_block1";;;;;;;;;;;;;;;;;;;;;;;;;;;;;;;;;;;;;;;;;;;;;;;;;;;;;;;;;;;;;;;;;;;;;;"1705";"2014-09-30 20:22:58.022";"FINISHED";"UNPLEASANT";"success";"689";"2014-09-30 20:22:56.316";"IAT_UPUP.csv";"1";"awful";;;;;;;;;;;;;;;;;;;;
"C1445516";"1996";;"Mac OS X";"Rachel's Experiment (SCIAT)";"1.0";"1";"1";"1";"1";"1";"1";"2014-09-30 20:11:25.422";"2014-09-30 20:27:25.684";"1";"0";"0";"1";"0";"225";"224";"module.IAT_Block1.exec-1691.IAT_block1";;;;;;;;;;;;;;;;;;;;;;;;;;;;;;;;;;;;;;;;;;;;;;;;;;;;;;;;;;;;;;;;;;;;;;"1704";"2014-09-30 20:22:59.749";"FINISHED";"UNPLEASANT";"success";"711";"2014-09-30 20:22:58.045";"IAT_UPUP.csv";"1";"A0";;;;;;;;;;;;;;;;;;;;
