"user.name";"user.yearOfBirth";"user.sex";"user.osName";"module.name";"module.version";"module.online.subject.code";"module.online.study.id";"module.online.module.nr";"module.online.group.nr";"session.id";"session.index";"session.startTime";"session.endTime";"session.completed";"session.node-2074.blockOrder";"session.node-2074.IATorder";"session.node-2074.keyOrder";"session.node-2962.conditionType";"trial.id";"trial.index";"trial.name";"trial.GoNoGo1.durationTime";"trial.GoNoGo1.endTime";"trial.GoNoGo1.Error Type";"trial.GoNoGo1.icon";"trial.GoNoGo1.location";"trial.GoNoGo1.outcome";"trial.GoNoGo1.response";"trial.GoNoGo1.result";"trial.GoNoGo1.RT";"trial.GoNoGo1.signal";"trial.GoNoGo1.startTime";"trial.GoNoGo1.stimulus type";"trial.GoNoGo2.durationTime";"trial.GoNoGo2.endTime";"trial.GoNoGo2.Error Type";"trial.GoNoGo2.icon";"trial.GoNoGo2.location";"trial.GoNoGo2.outcome";"trial.GoNoGo2.response";"trial.GoNoGo2.result";"trial.GoNoGo2.RT";"trial.GoNoGo2.signal";"trial.GoNoGo2.startTime";"trial.GoNoGo2.stimulus type";"trial.GoNoGo3.durationTime";"trial.GoNoGo3.endTime";"trial.GoNoGo3.Error Type";"trial.GoNoGo3.icon";"trial.GoNoGo3.location";"trial.GoNoGo3.outcome";"trial.GoNoGo3.response";"trial.GoNoGo3.result";"trial.GoNoGo3.RT";"trial.GoNoGo3.signal";"trial.GoNoGo3.startTime";"trial.GoNoGo3.stimulus type";"trial.GoNoGo4.durationTime";"trial.GoNoGo4.endTime";"trial.GoNoGo4.Error Type";"trial.GoNoGo4.icon";"trial.GoNoGo4.location";"trial.GoNoGo4.outcome";"trial.GoNoGo4.response";"trial.GoNoGo4.result";"trial.GoNoGo4.RT";"trial.GoNoGo4.signal";"trial.GoNoGo4.startTime";"trial.GoNoGo4.stimulus type";"trial.GoNoGo_Practice.durationTime";"trial.GoNoGo_Practice.endTime";"trial.GoNoGo_Practice.icon";"trial.GoNoGo_Practice.location";"trial.GoNoGo_Practice.outcome";"trial.GoNoGo_Practice.response";"trial.GoNoGo_Practice.result";"trial.GoNoGo_Practice.RT";"trial.GoNoGo_Practice.signal";"trial.GoNoGo_Practice.startTime";"trial.GoNoGo_Practice.stimulus type";"trial.GoNoGo_Tutorial.durationTime";"trial.GoNoGo_Tutorial.endTime";"trial.GoNoGo_Tutorial.icon";"trial.GoNoGo_Tutorial.location";"trial.GoNoGo_Tutorial.outcome";"trial.GoNoGo_Tutorial.response";"trial.GoNoGo_Tutorial.result";"trial.GoNoGo_Tutorial.RT";"trial.GoNoGo_Tutorial.signal";"trial.GoNoGo_Tutorial.startTime"
"sagpjh";"1988";;"Windows 7";"Rachel's Experiment (SCIAT)";"1.0";"1";"1";"1";"1";"1";"1";"2014-10-02 13:20:25.995";"2014-10-02 13:28:53.718";"1";"0";"1";"1";"0";"1";"0";"module.GoNoGotutorial.exec-2188.GoNoGo_Tutorial";;;;;;;;;;;;;;;;;;;;;;;;;;;;;;;;;;;;;;;;;;;;;;;;;;;;;;;;;;;;"4000";"2014-10-02 13:21:01.797";"leftResponse";"0";"FINISHED";"NONE";"failure";"0";"0";"2014-10-02 13:20:57.796"
"sagpjh";"1988";;"Windows 7";"Rachel's Experiment (SCIAT)";"1.0";"1";"1";"1";"1";"1";"1";"2014-10-02 13:20:25.995";"2014-10-02 13:28:53.718";"1";"0";"1";"1";"0";"2";"1";"module.GoNoGotutorial.exec-2188.GoNoGo_Tutorial";;;;;;;;;;;;;;;;;;;;;;;;;;;;;;;;;;;;;;;;;;;;;;;;;;;;;;;;;;;;"3999";"2014-10-02 13:21:07.085";"rightResponse";"1";"FINISHED";"NONE";"failure";"0";"0";"2014-10-02 13:21:03.085"
"sagpjh";"1988";;"Windows 7";"Rachel's Experiment (SCIAT)";"1.0";"1";"1";"1";"1";"1";"1";"2014-10-02 13:20:25.995";"2014-10-02 13:28:53.718";"1";"0";"1";"1";"0";"3";"2";"module.GoNoGotutorial.exec-2188.GoNoGo_Tutorial";;;;;;;;;;;;;;;;;;;;;;;;;;;;;;;;;;;;;;;;;;;;;;;;;;;;;;;;;;;;"3999";"2014-10-02 13:21:12.368";"quickResponse";"0";"FINISHED";"NONE";"failure";"0";"0";"2014-10-02 13:21:08.368"
"sagpjh";"1988";;"Windows 7";"Rachel's Experiment (SCIAT)";"1.0";"1";"1";"1";"1";"1";"1";"2014-10-02 13:20:25.995";"2014-10-02 13:28:53.718";"1";"0";"1";"1";"0";"4";"3";"module.GoNoGopractice.exec-2197.GoNoGo_Practice";;;;;;;;;;;;;;;;;;;;;;;;;;;;;;;;;;;;;;;;;;;;;;;;;"1955";"2014-10-02 13:21:22.844";"18";"0";"FINISHED";"LEFT";"success";"441";"0";"2014-10-02 13:21:20.889";"3";;;;;;;;;;
"sagpjh";"1988";;"Windows 7";"Rachel's Experiment (SCIAT)";"1.0";"1";"1";"1";"1";"1";"1";"2014-10-02 13:20:25.995";"2014-10-02 13:28:53.718";"1";"0";"1";"1";"0";"5";"4";"module.GoNoGopractice.exec-2197.GoNoGo_Practice";;;;;;;;;;;;;;;;;;;;;;;;;;;;;;;;;;;;;;;;;;;;;;;;;"1951";"2014-10-02 13:21:26.077";"21";"1";"FINISHED";"RIGHT";"success";"301";"0";"2014-10-02 13:21:24.125";"3";;;;;;;;;;
"sagpjh";"1988";;"Windows 7";"Rachel's Experiment (SCIAT)";"1.0";"1";"1";"1";"1";"1";"1";"2014-10-02 13:20:25.995";"2014-10-02 13:28:53.718";"1";"0";"1";"1";"0";"6";"5";"module.GoNoGopractice.exec-2197.GoNoGo_Practice";;;;;;;;;;;;;;;;;;;;;;;;;;;;;;;;;;;;;;;;;;;;;;;;;"1950";"2014-10-02 13:21:29.308";"14";"1";"FINISHED";"RIGHT";"success";"357";"0";"2014-10-02 13:21:27.357";"2";;;;;;;;;;
"sagpjh";"1988";;"Windows 7";"Rachel's Experiment (SCIAT)";"1.0";"1";"1";"1";"1";"1";"1";"2014-10-02 13:20:25.995";"2014-10-02 13:28:53.718";"1";"0";"1";"1";"0";"7";"6";"module.GoNoGopractice.exec-2197.GoNoGo_Practice";;;;;;;;;;;;;;;;;;;;;;;;;;;;;;;;;;;;;;;;;;;;;;;;;"1950";"2014-10-02 13:21:32.540";"26";"0";"FINISHED";"LEFT";"success";"365";"0";"2014-10-02 13:21:30.588";"3";;;;;;;;;;
"sagpjh";"1988";;"Windows 7";"Rachel's Experiment (SCIAT)";"1.0";"1";"1";"1";"1";"1";"1";"2014-10-02 13:20:25.995";"2014-10-02 13:28:53.718";"1";"0";"1";"1";"0";"8";"7";"module.GoNoGopractice.exec-2197.GoNoGo_Practice";;;;;;;;;;;;;;;;;;;;;;;;;;;;;;;;;;;;;;;;;;;;;;;;;"1951";"2014-10-02 13:21:35.782";"2";"0";"FINISHED";"LEFT";"success";"340";"0";"2014-10-02 13:21:33.831";"1";;;;;;;;;;
"sagpjh";"1988";;"Windows 7";"Rachel's Experiment (SCIAT)";"1.0";"1";"1";"1";"1";"1";"1";"2014-10-02 13:20:25.995";"2014-10-02 13:28:53.718";"1";"0";"1";"1";"0";"9";"8";"module.GoNoGopractice.exec-2197.GoNoGo_Practice";;;;;;;;;;;;;;;;;;;;;;;;;;;;;;;;;;;;;;;;;;;;;;;;;"1951";"2014-10-02 13:21:39.012";"30";"0";"FINISHED";"LEFT";"success";"333";"0";"2014-10-02 13:21:37.061";"3";;;;;;;;;;
"sagpjh";"1988";;"Windows 7";"Rachel's Experiment (SCIAT)";"1.0";"1";"1";"1";"1";"1";"1";"2014-10-02 13:20:25.995";"2014-10-02 13:28:53.718";"1";"0";"1";"1";"0";"10";"9";"module.GoNoGopractice.exec-2197.GoNoGo_Practice";;;;;;;;;;;;;;;;;;;;;;;;;;;;;;;;;;;;;;;;;;;;;;;;;"1950";"2014-10-02 13:21:42.241";"6";"1";"FINISHED";"RIGHT";"success";"328";"0";"2014-10-02 13:21:40.290";"1";;;;;;;;;;
"sagpjh";"1988";;"Windows 7";"Rachel's Experiment (SCIAT)";"1.0";"1";"1";"1";"1";"1";"1";"2014-10-02 13:20:25.995";"2014-10-02 13:28:53.718";"1";"0";"1";"1";"0";"11";"10";"module.GoNoGopractice.exec-2197.GoNoGo_Practice";;;;;;;;;;;;;;;;;;;;;;;;;;;;;;;;;;;;;;;;;;;;;;;;;"1950";"2014-10-02 13:21:45.469";"34";"0";"FINISHED";"LEFT";"success";"315";"0";"2014-10-02 13:21:43.518";"3";;;;;;;;;;
"sagpjh";"1988";;"Windows 7";"Rachel's Experiment (SCIAT)";"1.0";"1";"1";"1";"1";"1";"1";"2014-10-02 13:20:25.995";"2014-10-02 13:28:53.718";"1";"0";"1";"1";"0";"12";"11";"module.GoNoGopractice.exec-2197.GoNoGo_Practice";;;;;;;;;;;;;;;;;;;;;;;;;;;;;;;;;;;;;;;;;;;;;;;;;"1950";"2014-10-02 13:21:48.697";"23";"1";"FINISHED";"RIGHT";"success";"344";"0";"2014-10-02 13:21:46.746";"3";;;;;;;;;;
"sagpjh";"1988";;"Windows 7";"Rachel's Experiment (SCIAT)";"1.0";"1";"1";"1";"1";"1";"1";"2014-10-02 13:20:25.995";"2014-10-02 13:28:53.718";"1";"0";"1";"1";"0";"13";"12";"module.GoNoGopractice.exec-2197.GoNoGo_Practice";;;;;;;;;;;;;;;;;;;;;;;;;;;;;;;;;;;;;;;;;;;;;;;;;"1950";"2014-10-02 13:21:51.924";"13";"0";"FINISHED";"LEFT";"success";"340";"0";"2014-10-02 13:21:49.973";"2";;;;;;;;;;
"sagpjh";"1988";;"Windows 7";"Rachel's Experiment (SCIAT)";"1.0";"1";"1";"1";"1";"1";"1";"2014-10-02 13:20:25.995";"2014-10-02 13:28:53.718";"1";"0";"1";"1";"0";"14";"13";"module.GoNoGopractice.exec-2197.GoNoGo_Practice";;;;;;;;;;;;;;;;;;;;;;;;;;;;;;;;;;;;;;;;;;;;;;;;;"1950";"2014-10-02 13:21:55.151";"3";"1";"FINISHED";"RIGHT";"success";"369";"0";"2014-10-02 13:21:53.200";"1";;;;;;;;;;
"sagpjh";"1988";;"Windows 7";"Rachel's Experiment (SCIAT)";"1.0";"1";"1";"1";"1";"1";"1";"2014-10-02 13:20:25.995";"2014-10-02 13:28:53.718";"1";"0";"1";"1";"0";"15";"14";"module.GoNoGopractice.exec-2197.GoNoGo_Practice";;;;;;;;;;;;;;;;;;;;;;;;;;;;;;;;;;;;;;;;;;;;;;;;;"1950";"2014-10-02 13:21:58.378";"27";"1";"FINISHED";"RIGHT";"success";"342";"0";"2014-10-02 13:21:56.427";"3";;;;;;;;;;
"sagpjh";"1988";;"Windows 7";"Rachel's Experiment (SCIAT)";"1.0";"1";"1";"1";"1";"1";"1";"2014-10-02 13:20:25.995";"2014-10-02 13:28:53.718";"1";"0";"1";"1";"0";"16";"15";"module.training_block1.exec-5562.GoNoGo1";"1250";"2014-10-02 13:22:10.302";"NST_correctLoc";"12";"1";"FINISHED";"RIGHT";"success";"397";"0";"2014-10-02 13:22:09.052";"2";;;;;;;;;;;;;;;;;;;;;;;;;;;;;;;;;;;;;;;;;;;;;;;;;;;;;;;;;
"sagpjh";"1988";;"Windows 7";"Rachel's Experiment (SCIAT)";"1.0";"1";"1";"1";"1";"1";"1";"2014-10-02 13:20:25.995";"2014-10-02 13:28:53.718";"1";"0";"1";"1";"0";"17";"16";"module.training_block1.exec-5562.GoNoGo1";"1249";"2014-10-02 13:22:12.832";"NST_correctLoc";"22";"0";"FINISHED";"LEFT";"success";"316";"0";"2014-10-02 13:22:11.582";"3";;;;;;;;;;;;;;;;;;;;;;;;;;;;;;;;;;;;;;;;;;;;;;;;;;;;;;;;;
"sagpjh";"1988";;"Windows 7";"Rachel's Experiment (SCIAT)";"1.0";"1";"1";"1";"1";"1";"1";"2014-10-02 13:20:25.995";"2014-10-02 13:28:53.718";"1";"0";"1";"1";"0";"18";"17";"module.training_block1.exec-5562.GoNoGo1";"1250";"2014-10-02 13:22:15.358";"NST_correctLoc";"1";"1";"FINISHED";"RIGHT";"success";"349";"0";"2014-10-02 13:22:14.108";"1";;;;;;;;;;;;;;;;;;;;;;;;;;;;;;;;;;;;;;;;;;;;;;;;;;;;;;;;;
"sagpjh";"1988";;"Windows 7";"Rachel's Experiment (SCIAT)";"1.0";"1";"1";"1";"1";"1";"1";"2014-10-02 13:20:25.995";"2014-10-02 13:28:53.718";"1";"0";"1";"1";"0";"19";"18";"module.training_block1.exec-5562.GoNoGo1";"1249";"2014-10-02 13:22:17.883";"NST_correctLoc";"11";"0";"FINISHED";"LEFT";"success";"336";"0";"2014-10-02 13:22:16.633";"2";;;;;;;;;;;;;;;;;;;;;;;;;;;;;;;;;;;;;;;;;;;;;;;;;;;;;;;;;
"sagpjh";"1988";;"Windows 7";"Rachel's Experiment (SCIAT)";"1.0";"1";"1";"1";"1";"1";"1";"2014-10-02 13:20:25.995";"2014-10-02 13:28:53.718";"1";"0";"1";"1";"0";"20";"19";"module.training_block1.exec-5562.GoNoGo1";"1249";"2014-10-02 13:22:20.558";"NST_correctLoc";"8";"0";"FINISHED";"LEFT";"success";"381";"0";"2014-10-02 13:22:19.308";"1";;;;;;;;;;;;;;;;;;;;;;;;;;;;;;;;;;;;;;;;;;;;;;;;;;;;;;;;;
"sagpjh";"1988";;"Windows 7";"Rachel's Experiment (SCIAT)";"1.0";"1";"1";"1";"1";"1";"1";"2014-10-02 13:20:25.995";"2014-10-02 13:28:53.718";"1";"0";"1";"1";"0";"21";"20";"module.training_block1.exec-5562.GoNoGo1";"1249";"2014-10-02 13:22:23.083";"NST_correctLoc";"26";"0";"FINISHED";"LEFT";"success";"351";"0";"2014-10-02 13:22:21.833";"3";;;;;;;;;;;;;;;;;;;;;;;;;;;;;;;;;;;;;;;;;;;;;;;;;;;;;;;;;
"sagpjh";"1988";;"Windows 7";"Rachel's Experiment (SCIAT)";"1.0";"1";"1";"1";"1";"1";"1";"2014-10-02 13:20:25.995";"2014-10-02 13:28:53.718";"1";"0";"1";"1";"0";"22";"21";"module.training_block1.exec-5562.GoNoGo1";"1249";"2014-10-02 13:22:25.610";"NST_correctLoc";"17";"0";"FINISHED";"LEFT";"success";"345";"0";"2014-10-02 13:22:24.360";"2";;;;;;;;;;;;;;;;;;;;;;;;;;;;;;;;;;;;;;;;;;;;;;;;;;;;;;;;;
"sagpjh";"1988";;"Windows 7";"Rachel's Experiment (SCIAT)";"1.0";"1";"1";"1";"1";"1";"1";"2014-10-02 13:20:25.995";"2014-10-02 13:28:53.718";"1";"0";"1";"1";"0";"23";"22";"module.training_block1.exec-5562.GoNoGo1";"1249";"2014-10-02 13:22:28.159";"NST_correctLoc";"27";"1";"FINISHED";"RIGHT";"success";"356";"0";"2014-10-02 13:22:26.909";"3";;;;;;;;;;;;;;;;;;;;;;;;;;;;;;;;;;;;;;;;;;;;;;;;;;;;;;;;;
"sagpjh";"1988";;"Windows 7";"Rachel's Experiment (SCIAT)";"1.0";"1";"1";"1";"1";"1";"1";"2014-10-02 13:20:25.995";"2014-10-02 13:28:53.718";"1";"0";"1";"1";"0";"24";"23";"module.training_block1.exec-5562.GoNoGo1";"1250";"2014-10-02 13:22:30.685";"NST_correctLoc";"24";"1";"FINISHED";"RIGHT";"success";"342";"0";"2014-10-02 13:22:29.435";"3";;;;;;;;;;;;;;;;;;;;;;;;;;;;;;;;;;;;;;;;;;;;;;;;;;;;;;;;;
"sagpjh";"1988";;"Windows 7";"Rachel's Experiment (SCIAT)";"1.0";"1";"1";"1";"1";"1";"1";"2014-10-02 13:20:25.995";"2014-10-02 13:28:53.718";"1";"0";"1";"1";"0";"25";"24";"module.training_block1.exec-5562.GoNoGo1";"1249";"2014-10-02 13:22:33.210";"NST_correctLoc";"16";"0";"FINISHED";"LEFT";"success";"376";"0";"2014-10-02 13:22:31.960";"2";;;;;;;;;;;;;;;;;;;;;;;;;;;;;;;;;;;;;;;;;;;;;;;;;;;;;;;;;
"sagpjh";"1988";;"Windows 7";"Rachel's Experiment (SCIAT)";"1.0";"1";"1";"1";"1";"1";"1";"2014-10-02 13:20:25.995";"2014-10-02 13:28:53.718";"1";"0";"1";"1";"0";"26";"25";"module.training_block1.exec-5562.GoNoGo1";"1250";"2014-10-02 13:22:35.736";"NST_correctLoc";"25";"1";"FINISHED";"RIGHT";"success";"315";"0";"2014-10-02 13:22:34.486";"3";;;;;;;;;;;;;;;;;;;;;;;;;;;;;;;;;;;;;;;;;;;;;;;;;;;;;;;;;
"sagpjh";"1988";;"Windows 7";"Rachel's Experiment (SCIAT)";"1.0";"1";"1";"1";"1";"1";"1";"2014-10-02 13:20:25.995";"2014-10-02 13:28:53.718";"1";"0";"1";"1";"0";"27";"26";"module.training_block1.exec-5562.GoNoGo1";"1250";"2014-10-02 13:22:38.260";"NST_correctLoc";"3";"1";"FINISHED";"RIGHT";"success";"343";"0";"2014-10-02 13:22:37.010";"1";;;;;;;;;;;;;;;;;;;;;;;;;;;;;;;;;;;;;;;;;;;;;;;;;;;;;;;;;
"sagpjh";"1988";;"Windows 7";"Rachel's Experiment (SCIAT)";"1.0";"1";"1";"1";"1";"1";"1";"2014-10-02 13:20:25.995";"2014-10-02 13:28:53.718";"1";"0";"1";"1";"0";"28";"27";"module.training_block1.exec-5562.GoNoGo1";"1250";"2014-10-02 13:22:40.785";"NST_correctLoc";"13";"1";"FINISHED";"RIGHT";"success";"322";"0";"2014-10-02 13:22:39.534";"2";;;;;;;;;;;;;;;;;;;;;;;;;;;;;;;;;;;;;;;;;;;;;;;;;;;;;;;;;
"sagpjh";"1988";;"Windows 7";"Rachel's Experiment (SCIAT)";"1.0";"1";"1";"1";"1";"1";"1";"2014-10-02 13:20:25.995";"2014-10-02 13:28:53.718";"1";"0";"1";"1";"0";"29";"28";"module.training_block1.exec-5562.GoNoGo1";"1249";"2014-10-02 13:22:43.309";"NST_correctLoc";"6";"1";"FINISHED";"RIGHT";"success";"309";"0";"2014-10-02 13:22:42.059";"1";;;;;;;;;;;;;;;;;;;;;;;;;;;;;;;;;;;;;;;;;;;;;;;;;;;;;;;;;
"sagpjh";"1988";;"Windows 7";"Rachel's Experiment (SCIAT)";"1.0";"1";"1";"1";"1";"1";"1";"2014-10-02 13:20:25.995";"2014-10-02 13:28:53.718";"1";"0";"1";"1";"0";"30";"29";"module.training_block1.exec-5562.GoNoGo1";"1249";"2014-10-02 13:22:45.833";"NST_correctLoc";"30";"0";"FINISHED";"LEFT";"success";"345";"0";"2014-10-02 13:22:44.583";"3";;;;;;;;;;;;;;;;;;;;;;;;;;;;;;;;;;;;;;;;;;;;;;;;;;;;;;;;;
"sagpjh";"1988";;"Windows 7";"Rachel's Experiment (SCIAT)";"1.0";"1";"1";"1";"1";"1";"1";"2014-10-02 13:20:25.995";"2014-10-02 13:28:53.718";"1";"0";"1";"1";"0";"31";"30";"module.training_block1.exec-5562.GoNoGo1";"1250";"2014-10-02 13:22:48.357";"NST_correctLoc";"34";"0";"FINISHED";"LEFT";"success";"358";"0";"2014-10-02 13:22:47.106";"3";;;;;;;;;;;;;;;;;;;;;;;;;;;;;;;;;;;;;;;;;;;;;;;;;;;;;;;;;
"sagpjh";"1988";;"Windows 7";"Rachel's Experiment (SCIAT)";"1.0";"1";"1";"1";"1";"1";"1";"2014-10-02 13:20:25.995";"2014-10-02 13:28:53.718";"1";"0";"1";"1";"0";"32";"31";"module.training_block1.exec-5562.GoNoGo1";"1249";"2014-10-02 13:22:50.879";"NST_correctLoc";"9";"0";"FINISHED";"LEFT";"success";"371";"0";"2014-10-02 13:22:49.629";"2";;;;;;;;;;;;;;;;;;;;;;;;;;;;;;;;;;;;;;;;;;;;;;;;;;;;;;;;;
"sagpjh";"1988";;"Windows 7";"Rachel's Experiment (SCIAT)";"1.0";"1";"1";"1";"1";"1";"1";"2014-10-02 13:20:25.995";"2014-10-02 13:28:53.718";"1";"0";"1";"1";"0";"33";"32";"module.training_block1.exec-5562.GoNoGo1";"1249";"2014-10-02 13:22:53.403";"NST_correctLoc";"31";"0";"FINISHED";"LEFT";"success";"311";"0";"2014-10-02 13:22:52.153";"3";;;;;;;;;;;;;;;;;;;;;;;;;;;;;;;;;;;;;;;;;;;;;;;;;;;;;;;;;
"sagpjh";"1988";;"Windows 7";"Rachel's Experiment (SCIAT)";"1.0";"1";"1";"1";"1";"1";"1";"2014-10-02 13:20:25.995";"2014-10-02 13:28:53.718";"1";"0";"1";"1";"0";"34";"33";"module.training_block1.exec-5562.GoNoGo1";"1249";"2014-10-02 13:22:55.932";"NST_correctLoc";"21";"1";"FINISHED";"RIGHT";"success";"294";"0";"2014-10-02 13:22:54.682";"3";;;;;;;;;;;;;;;;;;;;;;;;;;;;;;;;;;;;;;;;;;;;;;;;;;;;;;;;;
"sagpjh";"1988";;"Windows 7";"Rachel's Experiment (SCIAT)";"1.0";"1";"1";"1";"1";"1";"1";"2014-10-02 13:20:25.995";"2014-10-02 13:28:53.718";"1";"0";"1";"1";"0";"35";"34";"module.training_block1.exec-5562.GoNoGo1";"1249";"2014-10-02 13:22:58.456";"NST_correctLoc";"19";"1";"FINISHED";"RIGHT";"success";"403";"0";"2014-10-02 13:22:57.206";"3";;;;;;;;;;;;;;;;;;;;;;;;;;;;;;;;;;;;;;;;;;;;;;;;;;;;;;;;;
"sagpjh";"1988";;"Windows 7";"Rachel's Experiment (SCIAT)";"1.0";"1";"1";"1";"1";"1";"1";"2014-10-02 13:20:25.995";"2014-10-02 13:28:53.718";"1";"0";"1";"1";"0";"36";"35";"module.training_block1.exec-5562.GoNoGo1";"1249";"2014-10-02 13:23:00.980";"NST_correctLoc";"14";"1";"FINISHED";"RIGHT";"success";"302";"0";"2014-10-02 13:22:59.730";"2";;;;;;;;;;;;;;;;;;;;;;;;;;;;;;;;;;;;;;;;;;;;;;;;;;;;;;;;;
"sagpjh";"1988";;"Windows 7";"Rachel's Experiment (SCIAT)";"1.0";"1";"1";"1";"1";"1";"1";"2014-10-02 13:20:25.995";"2014-10-02 13:28:53.718";"1";"0";"1";"1";"0";"37";"36";"module.training_block1.exec-5562.GoNoGo1";"1249";"2014-10-02 13:23:03.503";"NST_correctLoc";"23";"1";"FINISHED";"RIGHT";"success";"266";"0";"2014-10-02 13:23:02.253";"3";;;;;;;;;;;;;;;;;;;;;;;;;;;;;;;;;;;;;;;;;;;;;;;;;;;;;;;;;
"sagpjh";"1988";;"Windows 7";"Rachel's Experiment (SCIAT)";"1.0";"1";"1";"1";"1";"1";"1";"2014-10-02 13:20:25.995";"2014-10-02 13:28:53.718";"1";"0";"1";"1";"0";"38";"37";"module.training_block1.exec-5562.GoNoGo1";"1250";"2014-10-02 13:23:06.026";"NST_correctLoc";"5";"1";"FINISHED";"RIGHT";"success";"328";"0";"2014-10-02 13:23:04.776";"1";;;;;;;;;;;;;;;;;;;;;;;;;;;;;;;;;;;;;;;;;;;;;;;;;;;;;;;;;
"sagpjh";"1988";;"Windows 7";"Rachel's Experiment (SCIAT)";"1.0";"1";"1";"1";"1";"1";"1";"2014-10-02 13:20:25.995";"2014-10-02 13:28:53.718";"1";"0";"1";"1";"0";"39";"38";"module.training_block1.exec-5562.GoNoGo1";"1250";"2014-10-02 13:23:08.548";"NST_correctLoc";"33";"1";"FINISHED";"RIGHT";"success";"310";"0";"2014-10-02 13:23:07.298";"3";;;;;;;;;;;;;;;;;;;;;;;;;;;;;;;;;;;;;;;;;;;;;;;;;;;;;;;;;
"sagpjh";"1988";;"Windows 7";"Rachel's Experiment (SCIAT)";"1.0";"1";"1";"1";"1";"1";"1";"2014-10-02 13:20:25.995";"2014-10-02 13:28:53.718";"1";"0";"1";"1";"0";"40";"39";"module.training_block1.exec-5562.GoNoGo1";"1249";"2014-10-02 13:23:11.071";"NST_correctLoc";"10";"1";"FINISHED";"RIGHT";"success";"307";"0";"2014-10-02 13:23:09.821";"2";;;;;;;;;;;;;;;;;;;;;;;;;;;;;;;;;;;;;;;;;;;;;;;;;;;;;;;;;
"sagpjh";"1988";;"Windows 7";"Rachel's Experiment (SCIAT)";"1.0";"1";"1";"1";"1";"1";"1";"2014-10-02 13:20:25.995";"2014-10-02 13:28:53.718";"1";"0";"1";"1";"0";"41";"40";"module.training_block1.exec-5562.GoNoGo1";"1249";"2014-10-02 13:23:13.593";"NST_correctLoc";"29";"0";"FINISHED";"LEFT";"success";"304";"0";"2014-10-02 13:23:12.343";"3";;;;;;;;;;;;;;;;;;;;;;;;;;;;;;;;;;;;;;;;;;;;;;;;;;;;;;;;;
"sagpjh";"1988";;"Windows 7";"Rachel's Experiment (SCIAT)";"1.0";"1";"1";"1";"1";"1";"1";"2014-10-02 13:20:25.995";"2014-10-02 13:28:53.718";"1";"0";"1";"1";"0";"42";"41";"module.training_block1.exec-5562.GoNoGo1";"1250";"2014-10-02 13:23:16.116";"NST_correctLoc";"28";"0";"FINISHED";"LEFT";"success";"318";"0";"2014-10-02 13:23:14.866";"3";;;;;;;;;;;;;;;;;;;;;;;;;;;;;;;;;;;;;;;;;;;;;;;;;;;;;;;;;
"sagpjh";"1988";;"Windows 7";"Rachel's Experiment (SCIAT)";"1.0";"1";"1";"1";"1";"1";"1";"2014-10-02 13:20:25.995";"2014-10-02 13:28:53.718";"1";"0";"1";"1";"0";"43";"42";"module.training_block1.exec-5562.GoNoGo1";"1249";"2014-10-02 13:23:18.638";"NST_correctLoc";"4";"1";"FINISHED";"RIGHT";"success";"307";"0";"2014-10-02 13:23:17.388";"1";;;;;;;;;;;;;;;;;;;;;;;;;;;;;;;;;;;;;;;;;;;;;;;;;;;;;;;;;
"sagpjh";"1988";;"Windows 7";"Rachel's Experiment (SCIAT)";"1.0";"1";"1";"1";"1";"1";"1";"2014-10-02 13:20:25.995";"2014-10-02 13:28:53.718";"1";"0";"1";"1";"0";"44";"43";"module.training_block1.exec-5562.GoNoGo1";"1249";"2014-10-02 13:23:21.160";"NST_correctLoc";"0";"1";"FINISHED";"RIGHT";"success";"330";"0";"2014-10-02 13:23:19.910";"1";;;;;;;;;;;;;;;;;;;;;;;;;;;;;;;;;;;;;;;;;;;;;;;;;;;;;;;;;
"sagpjh";"1988";;"Windows 7";"Rachel's Experiment (SCIAT)";"1.0";"1";"1";"1";"1";"1";"1";"2014-10-02 13:20:25.995";"2014-10-02 13:28:53.718";"1";"0";"1";"1";"0";"45";"44";"module.training_block1.exec-5562.GoNoGo1";"1249";"2014-10-02 13:23:23.682";"NST_correctLoc";"20";"0";"FINISHED";"LEFT";"success";"319";"0";"2014-10-02 13:23:22.432";"3";;;;;;;;;;;;;;;;;;;;;;;;;;;;;;;;;;;;;;;;;;;;;;;;;;;;;;;;;
"sagpjh";"1988";;"Windows 7";"Rachel's Experiment (SCIAT)";"1.0";"1";"1";"1";"1";"1";"1";"2014-10-02 13:20:25.995";"2014-10-02 13:28:53.718";"1";"0";"1";"1";"0";"46";"45";"module.training_block1.exec-5562.GoNoGo1";"1250";"2014-10-02 13:23:26.204";"NST_correctLoc";"18";"0";"FINISHED";"LEFT";"success";"302";"0";"2014-10-02 13:23:24.954";"3";;;;;;;;;;;;;;;;;;;;;;;;;;;;;;;;;;;;;;;;;;;;;;;;;;;;;;;;;
"sagpjh";"1988";;"Windows 7";"Rachel's Experiment (SCIAT)";"1.0";"1";"1";"1";"1";"1";"1";"2014-10-02 13:20:25.995";"2014-10-02 13:28:53.718";"1";"0";"1";"1";"0";"47";"46";"module.training_block1.exec-5562.GoNoGo1";"1249";"2014-10-02 13:23:28.725";"NST_correctLoc";"2";"0";"FINISHED";"LEFT";"success";"332";"0";"2014-10-02 13:23:27.475";"1";;;;;;;;;;;;;;;;;;;;;;;;;;;;;;;;;;;;;;;;;;;;;;;;;;;;;;;;;
"sagpjh";"1988";;"Windows 7";"Rachel's Experiment (SCIAT)";"1.0";"1";"1";"1";"1";"1";"1";"2014-10-02 13:20:25.995";"2014-10-02 13:28:53.718";"1";"0";"1";"1";"0";"48";"47";"module.training_block1.exec-5562.GoNoGo1";"1249";"2014-10-02 13:23:31.251";"NST_correctLoc";"32";"1";"FINISHED";"RIGHT";"success";"326";"0";"2014-10-02 13:23:30.001";"3";;;;;;;;;;;;;;;;;;;;;;;;;;;;;;;;;;;;;;;;;;;;;;;;;;;;;;;;;
"sagpjh";"1988";;"Windows 7";"Rachel's Experiment (SCIAT)";"1.0";"1";"1";"1";"1";"1";"1";"2014-10-02 13:20:25.995";"2014-10-02 13:28:53.718";"1";"0";"1";"1";"0";"49";"48";"module.training_block1.exec-5562.GoNoGo1";"1249";"2014-10-02 13:23:33.773";"NST_correctLoc";"7";"1";"FINISHED";"RIGHT";"success";"308";"0";"2014-10-02 13:23:32.523";"1";;;;;;;;;;;;;;;;;;;;;;;;;;;;;;;;;;;;;;;;;;;;;;;;;;;;;;;;;
"sagpjh";"1988";;"Windows 7";"Rachel's Experiment (SCIAT)";"1.0";"1";"1";"1";"1";"1";"1";"2014-10-02 13:20:25.995";"2014-10-02 13:28:53.718";"1";"0";"1";"1";"0";"50";"49";"module.training_block1.exec-5562.GoNoGo1";"1249";"2014-10-02 13:23:36.294";"NST_correctLoc";"15";"1";"FINISHED";"RIGHT";"success";"378";"0";"2014-10-02 13:23:35.044";"2";;;;;;;;;;;;;;;;;;;;;;;;;;;;;;;;;;;;;;;;;;;;;;;;;;;;;;;;;
"sagpjh";"1988";;"Windows 7";"Rachel's Experiment (SCIAT)";"1.0";"1";"1";"1";"1";"1";"1";"2014-10-02 13:20:25.995";"2014-10-02 13:28:53.718";"1";"0";"1";"1";"0";"51";"50";"module.training_block1.exec-5562.GoNoGo1";"1250";"2014-10-02 13:23:38.817";"NST_correctLoc";"35";"0";"FINISHED";"LEFT";"success";"337";"0";"2014-10-02 13:23:37.567";"3";;;;;;;;;;;;;;;;;;;;;;;;;;;;;;;;;;;;;;;;;;;;;;;;;;;;;;;;;
"sagpjh";"1988";;"Windows 7";"Rachel's Experiment (SCIAT)";"1.0";"1";"1";"1";"1";"1";"1";"2014-10-02 13:20:25.995";"2014-10-02 13:28:53.718";"1";"0";"1";"1";"0";"52";"51";"module.training_block2.exec-5713.GoNoGo2";;;;;;;;;;;;;"1249";"2014-10-02 13:23:49.701";"NST_correctLoc";"9";"0";"FINISHED";"LEFT";"success";"300";"0";"2014-10-02 13:23:48.451";"2";;;;;;;;;;;;;;;;;;;;;;;;;;;;;;;;;;;;;;;;;;;;;
"sagpjh";"1988";;"Windows 7";"Rachel's Experiment (SCIAT)";"1.0";"1";"1";"1";"1";"1";"1";"2014-10-02 13:20:25.995";"2014-10-02 13:28:53.718";"1";"0";"1";"1";"0";"53";"52";"module.training_block2.exec-5713.GoNoGo2";;;;;;;;;;;;;"1249";"2014-10-02 13:23:52.218";"NST_correctLoc";"8";"1";"FINISHED";"RIGHT";"success";"318";"0";"2014-10-02 13:23:50.968";"1";;;;;;;;;;;;;;;;;;;;;;;;;;;;;;;;;;;;;;;;;;;;;
"sagpjh";"1988";;"Windows 7";"Rachel's Experiment (SCIAT)";"1.0";"1";"1";"1";"1";"1";"1";"2014-10-02 13:20:25.995";"2014-10-02 13:28:53.718";"1";"0";"1";"1";"0";"54";"53";"module.training_block2.exec-5713.GoNoGo2";;;;;;;;;;;;;"1250";"2014-10-02 13:23:54.737";"NST_correctLoc";"4";"1";"FINISHED";"RIGHT";"success";"337";"0";"2014-10-02 13:23:53.486";"1";;;;;;;;;;;;;;;;;;;;;;;;;;;;;;;;;;;;;;;;;;;;;
"sagpjh";"1988";;"Windows 7";"Rachel's Experiment (SCIAT)";"1.0";"1";"1";"1";"1";"1";"1";"2014-10-02 13:20:25.995";"2014-10-02 13:28:53.718";"1";"0";"1";"1";"0";"55";"54";"module.training_block2.exec-5713.GoNoGo2";;;;;;;;;;;;;"1249";"2014-10-02 13:23:57.254";"NST_correctLoc";"20";"0";"FINISHED";"LEFT";"success";"362";"0";"2014-10-02 13:23:56.004";"3";;;;;;;;;;;;;;;;;;;;;;;;;;;;;;;;;;;;;;;;;;;;;
"sagpjh";"1988";;"Windows 7";"Rachel's Experiment (SCIAT)";"1.0";"1";"1";"1";"1";"1";"1";"2014-10-02 13:20:25.995";"2014-10-02 13:28:53.718";"1";"0";"1";"1";"0";"56";"55";"module.training_block2.exec-5713.GoNoGo2";;;;;;;;;;;;;"1250";"2014-10-02 13:23:59.773";"NST_correctLoc";"28";"0";"FINISHED";"LEFT";"success";"340";"0";"2014-10-02 13:23:58.522";"3";;;;;;;;;;;;;;;;;;;;;;;;;;;;;;;;;;;;;;;;;;;;;
"sagpjh";"1988";;"Windows 7";"Rachel's Experiment (SCIAT)";"1.0";"1";"1";"1";"1";"1";"1";"2014-10-02 13:20:25.995";"2014-10-02 13:28:53.718";"1";"0";"1";"1";"0";"57";"56";"module.training_block2.exec-5713.GoNoGo2";;;;;;;;;;;;;"1250";"2014-10-02 13:24:02.294";"NST_correctLoc";"12";"1";"FINISHED";"RIGHT";"success";"323";"0";"2014-10-02 13:24:01.044";"2";;;;;;;;;;;;;;;;;;;;;;;;;;;;;;;;;;;;;;;;;;;;;
"sagpjh";"1988";;"Windows 7";"Rachel's Experiment (SCIAT)";"1.0";"1";"1";"1";"1";"1";"1";"2014-10-02 13:20:25.995";"2014-10-02 13:28:53.718";"1";"0";"1";"1";"0";"58";"57";"module.training_block2.exec-5713.GoNoGo2";;;;;;;;;;;;;"1249";"2014-10-02 13:24:04.811";"NST_correctLoc";"26";"1";"FINISHED";"RIGHT";"success";"341";"0";"2014-10-02 13:24:03.561";"3";;;;;;;;;;;;;;;;;;;;;;;;;;;;;;;;;;;;;;;;;;;;;
"sagpjh";"1988";;"Windows 7";"Rachel's Experiment (SCIAT)";"1.0";"1";"1";"1";"1";"1";"1";"2014-10-02 13:20:25.995";"2014-10-02 13:28:53.718";"1";"0";"1";"1";"0";"59";"58";"module.training_block2.exec-5713.GoNoGo2";;;;;;;;;;;;;"1249";"2014-10-02 13:24:07.329";"NST_correctLoc";"16";"1";"FINISHED";"RIGHT";"success";"432";"0";"2014-10-02 13:24:06.079";"2";;;;;;;;;;;;;;;;;;;;;;;;;;;;;;;;;;;;;;;;;;;;;
"sagpjh";"1988";;"Windows 7";"Rachel's Experiment (SCIAT)";"1.0";"1";"1";"1";"1";"1";"1";"2014-10-02 13:20:25.995";"2014-10-02 13:28:53.718";"1";"0";"1";"1";"0";"60";"59";"module.training_block2.exec-5713.GoNoGo2";;;;;;;;;;;;;"1249";"2014-10-02 13:24:09.845";"NST_correctLoc";"21";"0";"FINISHED";"LEFT";"success";"307";"0";"2014-10-02 13:24:08.595";"3";;;;;;;;;;;;;;;;;;;;;;;;;;;;;;;;;;;;;;;;;;;;;
"sagpjh";"1988";;"Windows 7";"Rachel's Experiment (SCIAT)";"1.0";"1";"1";"1";"1";"1";"1";"2014-10-02 13:20:25.995";"2014-10-02 13:28:53.718";"1";"0";"1";"1";"0";"61";"60";"module.training_block2.exec-5713.GoNoGo2";;;;;;;;;;;;;"1249";"2014-10-02 13:24:12.359";"NST_correctLoc";"18";"0";"FINISHED";"LEFT";"success";"313";"0";"2014-10-02 13:24:11.109";"3";;;;;;;;;;;;;;;;;;;;;;;;;;;;;;;;;;;;;;;;;;;;;
"sagpjh";"1988";;"Windows 7";"Rachel's Experiment (SCIAT)";"1.0";"1";"1";"1";"1";"1";"1";"2014-10-02 13:20:25.995";"2014-10-02 13:28:53.718";"1";"0";"1";"1";"0";"62";"61";"module.training_block2.exec-5713.GoNoGo2";;;;;;;;;;;;;"1249";"2014-10-02 13:24:14.875";"NST_correctLoc";"7";"1";"FINISHED";"RIGHT";"success";"333";"0";"2014-10-02 13:24:13.625";"1";;;;;;;;;;;;;;;;;;;;;;;;;;;;;;;;;;;;;;;;;;;;;
"sagpjh";"1988";;"Windows 7";"Rachel's Experiment (SCIAT)";"1.0";"1";"1";"1";"1";"1";"1";"2014-10-02 13:20:25.995";"2014-10-02 13:28:53.718";"1";"0";"1";"1";"0";"63";"62";"module.training_block2.exec-5713.GoNoGo2";;;;;;;;;;;;;"1249";"2014-10-02 13:24:17.388";"NST_correctLoc";"32";"0";"FINISHED";"LEFT";"success";"460";"0";"2014-10-02 13:24:16.138";"3";;;;;;;;;;;;;;;;;;;;;;;;;;;;;;;;;;;;;;;;;;;;;
"sagpjh";"1988";;"Windows 7";"Rachel's Experiment (SCIAT)";"1.0";"1";"1";"1";"1";"1";"1";"2014-10-02 13:20:25.995";"2014-10-02 13:28:53.718";"1";"0";"1";"1";"0";"64";"63";"module.training_block2.exec-5713.GoNoGo2";;;;;;;;;;;;;"1249";"2014-10-02 13:24:19.909";"NST_correctLoc";"1";"1";"FINISHED";"RIGHT";"success";"332";"0";"2014-10-02 13:24:18.659";"1";;;;;;;;;;;;;;;;;;;;;;;;;;;;;;;;;;;;;;;;;;;;;
"sagpjh";"1988";;"Windows 7";"Rachel's Experiment (SCIAT)";"1.0";"1";"1";"1";"1";"1";"1";"2014-10-02 13:20:25.995";"2014-10-02 13:28:53.718";"1";"0";"1";"1";"0";"65";"64";"module.training_block2.exec-5713.GoNoGo2";;;;;;;;;;;;;"1249";"2014-10-02 13:24:22.425";"NST_correctLoc";"11";"0";"FINISHED";"LEFT";"success";"351";"0";"2014-10-02 13:24:21.175";"2";;;;;;;;;;;;;;;;;;;;;;;;;;;;;;;;;;;;;;;;;;;;;
"sagpjh";"1988";;"Windows 7";"Rachel's Experiment (SCIAT)";"1.0";"1";"1";"1";"1";"1";"1";"2014-10-02 13:20:25.995";"2014-10-02 13:28:53.718";"1";"0";"1";"1";"0";"66";"65";"module.training_block2.exec-5713.GoNoGo2";;;;;;;;;;;;;"1249";"2014-10-02 13:24:24.942";"NST_correctLoc";"14";"0";"FINISHED";"LEFT";"success";"338";"0";"2014-10-02 13:24:23.692";"2";;;;;;;;;;;;;;;;;;;;;;;;;;;;;;;;;;;;;;;;;;;;;
"sagpjh";"1988";;"Windows 7";"Rachel's Experiment (SCIAT)";"1.0";"1";"1";"1";"1";"1";"1";"2014-10-02 13:20:25.995";"2014-10-02 13:28:53.718";"1";"0";"1";"1";"0";"67";"66";"module.training_block2.exec-5713.GoNoGo2";;;;;;;;;;;;;"1249";"2014-10-02 13:24:27.461";"NST_correctLoc";"34";"0";"FINISHED";"LEFT";"success";"339";"0";"2014-10-02 13:24:26.211";"3";;;;;;;;;;;;;;;;;;;;;;;;;;;;;;;;;;;;;;;;;;;;;
"sagpjh";"1988";;"Windows 7";"Rachel's Experiment (SCIAT)";"1.0";"1";"1";"1";"1";"1";"1";"2014-10-02 13:20:25.995";"2014-10-02 13:28:53.718";"1";"0";"1";"1";"0";"68";"67";"module.training_block2.exec-5713.GoNoGo2";;;;;;;;;;;;;"1249";"2014-10-02 13:24:29.977";"NST_correctLoc";"13";"1";"FINISHED";"RIGHT";"success";"343";"0";"2014-10-02 13:24:28.727";"2";;;;;;;;;;;;;;;;;;;;;;;;;;;;;;;;;;;;;;;;;;;;;
"sagpjh";"1988";;"Windows 7";"Rachel's Experiment (SCIAT)";"1.0";"1";"1";"1";"1";"1";"1";"2014-10-02 13:20:25.995";"2014-10-02 13:28:53.718";"1";"0";"1";"1";"0";"69";"68";"module.training_block2.exec-5713.GoNoGo2";;;;;;;;;;;;;"1249";"2014-10-02 13:24:32.493";"NST_correctLoc";"6";"1";"FINISHED";"RIGHT";"success";"363";"0";"2014-10-02 13:24:31.243";"1";;;;;;;;;;;;;;;;;;;;;;;;;;;;;;;;;;;;;;;;;;;;;
"sagpjh";"1988";;"Windows 7";"Rachel's Experiment (SCIAT)";"1.0";"1";"1";"1";"1";"1";"1";"2014-10-02 13:20:25.995";"2014-10-02 13:28:53.718";"1";"0";"1";"1";"0";"70";"69";"module.training_block2.exec-5713.GoNoGo2";;;;;;;;;;;;;"1249";"2014-10-02 13:24:35.009";"NST_correctLoc";"31";"0";"FINISHED";"LEFT";"success";"542";"0";"2014-10-02 13:24:33.759";"3";;;;;;;;;;;;;;;;;;;;;;;;;;;;;;;;;;;;;;;;;;;;;
"sagpjh";"1988";;"Windows 7";"Rachel's Experiment (SCIAT)";"1.0";"1";"1";"1";"1";"1";"1";"2014-10-02 13:20:25.995";"2014-10-02 13:28:53.718";"1";"0";"1";"1";"0";"71";"70";"module.training_block2.exec-5713.GoNoGo2";;;;;;;;;;;;;"1249";"2014-10-02 13:24:37.525";"NST_correctLoc";"33";"0";"FINISHED";"LEFT";"success";"419";"0";"2014-10-02 13:24:36.275";"3";;;;;;;;;;;;;;;;;;;;;;;;;;;;;;;;;;;;;;;;;;;;;
"sagpjh";"1988";;"Windows 7";"Rachel's Experiment (SCIAT)";"1.0";"1";"1";"1";"1";"1";"1";"2014-10-02 13:20:25.995";"2014-10-02 13:28:53.718";"1";"0";"1";"1";"0";"72";"71";"module.training_block2.exec-5713.GoNoGo2";;;;;;;;;;;;;"1249";"2014-10-02 13:24:40.041";"NST_correctLoc";"27";"1";"FINISHED";"RIGHT";"success";"335";"0";"2014-10-02 13:24:38.791";"3";;;;;;;;;;;;;;;;;;;;;;;;;;;;;;;;;;;;;;;;;;;;;
"sagpjh";"1988";;"Windows 7";"Rachel's Experiment (SCIAT)";"1.0";"1";"1";"1";"1";"1";"1";"2014-10-02 13:20:25.995";"2014-10-02 13:28:53.718";"1";"0";"1";"1";"0";"73";"72";"module.training_block2.exec-5713.GoNoGo2";;;;;;;;;;;;;"1249";"2014-10-02 13:24:42.556";"NST_correctLoc";"3";"1";"FINISHED";"RIGHT";"success";"411";"0";"2014-10-02 13:24:41.306";"1";;;;;;;;;;;;;;;;;;;;;;;;;;;;;;;;;;;;;;;;;;;;;
"sagpjh";"1988";;"Windows 7";"Rachel's Experiment (SCIAT)";"1.0";"1";"1";"1";"1";"1";"1";"2014-10-02 13:20:25.995";"2014-10-02 13:28:53.718";"1";"0";"1";"1";"0";"74";"73";"module.training_block2.exec-5713.GoNoGo2";;;;;;;;;;;;;"1249";"2014-10-02 13:24:45.077";"NST_correctLoc";"22";"1";"FINISHED";"RIGHT";"success";"339";"0";"2014-10-02 13:24:43.827";"3";;;;;;;;;;;;;;;;;;;;;;;;;;;;;;;;;;;;;;;;;;;;;
"sagpjh";"1988";;"Windows 7";"Rachel's Experiment (SCIAT)";"1.0";"1";"1";"1";"1";"1";"1";"2014-10-02 13:20:25.995";"2014-10-02 13:28:53.718";"1";"0";"1";"1";"0";"75";"74";"module.training_block2.exec-5713.GoNoGo2";;;;;;;;;;;;;"1249";"2014-10-02 13:24:47.592";"NST_correctLoc";"0";"1";"FINISHED";"RIGHT";"success";"343";"0";"2014-10-02 13:24:46.342";"1";;;;;;;;;;;;;;;;;;;;;;;;;;;;;;;;;;;;;;;;;;;;;
"sagpjh";"1988";;"Windows 7";"Rachel's Experiment (SCIAT)";"1.0";"1";"1";"1";"1";"1";"1";"2014-10-02 13:20:25.995";"2014-10-02 13:28:53.718";"1";"0";"1";"1";"0";"76";"75";"module.training_block2.exec-5713.GoNoGo2";;;;;;;;;;;;;"1249";"2014-10-02 13:24:50.108";"NST_correctLoc";"15";"0";"FINISHED";"LEFT";"success";"339";"0";"2014-10-02 13:24:48.858";"2";;;;;;;;;;;;;;;;;;;;;;;;;;;;;;;;;;;;;;;;;;;;;
"sagpjh";"1988";;"Windows 7";"Rachel's Experiment (SCIAT)";"1.0";"1";"1";"1";"1";"1";"1";"2014-10-02 13:20:25.995";"2014-10-02 13:28:53.718";"1";"0";"1";"1";"0";"77";"76";"module.training_block2.exec-5713.GoNoGo2";;;;;;;;;;;;;"1249";"2014-10-02 13:24:52.621";"NST_correctLoc";"10";"1";"FINISHED";"RIGHT";"success";"291";"0";"2014-10-02 13:24:51.371";"2";;;;;;;;;;;;;;;;;;;;;;;;;;;;;;;;;;;;;;;;;;;;;
"sagpjh";"1988";;"Windows 7";"Rachel's Experiment (SCIAT)";"1.0";"1";"1";"1";"1";"1";"1";"2014-10-02 13:20:25.995";"2014-10-02 13:28:53.718";"1";"0";"1";"1";"0";"78";"77";"module.training_block2.exec-5713.GoNoGo2";;;;;;;;;;;;;"1249";"2014-10-02 13:24:55.136";"NST_correctLoc";"2";"1";"FINISHED";"RIGHT";"success";"295";"0";"2014-10-02 13:24:53.886";"1";;;;;;;;;;;;;;;;;;;;;;;;;;;;;;;;;;;;;;;;;;;;;
"sagpjh";"1988";;"Windows 7";"Rachel's Experiment (SCIAT)";"1.0";"1";"1";"1";"1";"1";"1";"2014-10-02 13:20:25.995";"2014-10-02 13:28:53.718";"1";"0";"1";"1";"0";"79";"78";"module.training_block2.exec-5713.GoNoGo2";;;;;;;;;;;;;"1249";"2014-10-02 13:24:57.651";"NST_correctLoc";"30";"1";"FINISHED";"RIGHT";"success";"316";"0";"2014-10-02 13:24:56.401";"3";;;;;;;;;;;;;;;;;;;;;;;;;;;;;;;;;;;;;;;;;;;;;
"sagpjh";"1988";;"Windows 7";"Rachel's Experiment (SCIAT)";"1.0";"1";"1";"1";"1";"1";"1";"2014-10-02 13:20:25.995";"2014-10-02 13:28:53.718";"1";"0";"1";"1";"0";"80";"79";"module.training_block2.exec-5713.GoNoGo2";;;;;;;;;;;;;"1249";"2014-10-02 13:25:00.166";"NST_correctLoc";"29";"0";"FINISHED";"LEFT";"success";"361";"0";"2014-10-02 13:24:58.916";"3";;;;;;;;;;;;;;;;;;;;;;;;;;;;;;;;;;;;;;;;;;;;;
"sagpjh";"1988";;"Windows 7";"Rachel's Experiment (SCIAT)";"1.0";"1";"1";"1";"1";"1";"1";"2014-10-02 13:20:25.995";"2014-10-02 13:28:53.718";"1";"0";"1";"1";"0";"81";"80";"module.training_block2.exec-5713.GoNoGo2";;;;;;;;;;;;;"1249";"2014-10-02 13:25:02.681";"NST_correctLoc";"25";"0";"FINISHED";"LEFT";"success";"326";"0";"2014-10-02 13:25:01.431";"3";;;;;;;;;;;;;;;;;;;;;;;;;;;;;;;;;;;;;;;;;;;;;
"sagpjh";"1988";;"Windows 7";"Rachel's Experiment (SCIAT)";"1.0";"1";"1";"1";"1";"1";"1";"2014-10-02 13:20:25.995";"2014-10-02 13:28:53.718";"1";"0";"1";"1";"0";"82";"81";"module.training_block2.exec-5713.GoNoGo2";;;;;;;;;;;;;"1249";"2014-10-02 13:25:05.196";"NST_correctLoc";"24";"1";"FINISHED";"RIGHT";"success";"331";"0";"2014-10-02 13:25:03.946";"3";;;;;;;;;;;;;;;;;;;;;;;;;;;;;;;;;;;;;;;;;;;;;
"sagpjh";"1988";;"Windows 7";"Rachel's Experiment (SCIAT)";"1.0";"1";"1";"1";"1";"1";"1";"2014-10-02 13:20:25.995";"2014-10-02 13:28:53.718";"1";"0";"1";"1";"0";"83";"82";"module.training_block2.exec-5713.GoNoGo2";;;;;;;;;;;;;"1249";"2014-10-02 13:25:07.711";"NST_correctLoc";"23";"1";"FINISHED";"RIGHT";"success";"336";"0";"2014-10-02 13:25:06.461";"3";;;;;;;;;;;;;;;;;;;;;;;;;;;;;;;;;;;;;;;;;;;;;
"sagpjh";"1988";;"Windows 7";"Rachel's Experiment (SCIAT)";"1.0";"1";"1";"1";"1";"1";"1";"2014-10-02 13:20:25.995";"2014-10-02 13:28:53.718";"1";"0";"1";"1";"0";"84";"83";"module.training_block2.exec-5713.GoNoGo2";;;;;;;;;;;;;"1249";"2014-10-02 13:25:10.227";"NST_correctLoc";"19";"1";"FINISHED";"RIGHT";"success";"356";"0";"2014-10-02 13:25:08.977";"3";;;;;;;;;;;;;;;;;;;;;;;;;;;;;;;;;;;;;;;;;;;;;
"sagpjh";"1988";;"Windows 7";"Rachel's Experiment (SCIAT)";"1.0";"1";"1";"1";"1";"1";"1";"2014-10-02 13:20:25.995";"2014-10-02 13:28:53.718";"1";"0";"1";"1";"0";"85";"84";"module.training_block2.exec-5713.GoNoGo2";;;;;;;;;;;;;"1249";"2014-10-02 13:25:12.742";"NST_correctLoc";"5";"1";"FINISHED";"RIGHT";"success";"337";"0";"2014-10-02 13:25:11.492";"1";;;;;;;;;;;;;;;;;;;;;;;;;;;;;;;;;;;;;;;;;;;;;
"sagpjh";"1988";;"Windows 7";"Rachel's Experiment (SCIAT)";"1.0";"1";"1";"1";"1";"1";"1";"2014-10-02 13:20:25.995";"2014-10-02 13:28:53.718";"1";"0";"1";"1";"0";"86";"85";"module.training_block2.exec-5713.GoNoGo2";;;;;;;;;;;;;"1249";"2014-10-02 13:25:15.257";"NST_correctLoc";"35";"0";"FINISHED";"LEFT";"success";"342";"0";"2014-10-02 13:25:14.007";"3";;;;;;;;;;;;;;;;;;;;;;;;;;;;;;;;;;;;;;;;;;;;;
"sagpjh";"1988";;"Windows 7";"Rachel's Experiment (SCIAT)";"1.0";"1";"1";"1";"1";"1";"1";"2014-10-02 13:20:25.995";"2014-10-02 13:28:53.718";"1";"0";"1";"1";"0";"87";"86";"module.training_block2.exec-5713.GoNoGo2";;;;;;;;;;;;;"1249";"2014-10-02 13:25:17.773";"NST_correctLoc";"17";"0";"FINISHED";"LEFT";"success";"330";"0";"2014-10-02 13:25:16.523";"2";;;;;;;;;;;;;;;;;;;;;;;;;;;;;;;;;;;;;;;;;;;;;
"sagpjh";"1988";;"Windows 7";"Rachel's Experiment (SCIAT)";"1.0";"1";"1";"1";"1";"1";"1";"2014-10-02 13:20:25.995";"2014-10-02 13:28:53.718";"1";"0";"1";"1";"0";"88";"87";"module.training_block3.exec-9260.GoNoGo3";;;;;;;;;;;;;;;;;;;;;;;;;"1249";"2014-10-02 13:25:28.714";"NST_correctLoc";"7";"0";"FINISHED";"LEFT";"success";"356";"0";"2014-10-02 13:25:27.464";"1";;;;;;;;;;;;;;;;;;;;;;;;;;;;;;;;;
"sagpjh";"1988";;"Windows 7";"Rachel's Experiment (SCIAT)";"1.0";"1";"1";"1";"1";"1";"1";"2014-10-02 13:20:25.995";"2014-10-02 13:28:53.718";"1";"0";"1";"1";"0";"89";"88";"module.training_block3.exec-9260.GoNoGo3";;;;;;;;;;;;;;;;;;;;;;;;;"1249";"2014-10-02 13:25:31.234";"NST_correctLoc";"14";"0";"FINISHED";"LEFT";"success";"357";"0";"2014-10-02 13:25:29.984";"2";;;;;;;;;;;;;;;;;;;;;;;;;;;;;;;;;
"sagpjh";"1988";;"Windows 7";"Rachel's Experiment (SCIAT)";"1.0";"1";"1";"1";"1";"1";"1";"2014-10-02 13:20:25.995";"2014-10-02 13:28:53.718";"1";"0";"1";"1";"0";"90";"89";"module.training_block3.exec-9260.GoNoGo3";;;;;;;;;;;;;;;;;;;;;;;;;"1249";"2014-10-02 13:25:33.750";"NST_correctLoc";"11";"1";"FINISHED";"RIGHT";"success";"329";"0";"2014-10-02 13:25:32.500";"2";;;;;;;;;;;;;;;;;;;;;;;;;;;;;;;;;
"sagpjh";"1988";;"Windows 7";"Rachel's Experiment (SCIAT)";"1.0";"1";"1";"1";"1";"1";"1";"2014-10-02 13:20:25.995";"2014-10-02 13:28:53.718";"1";"0";"1";"1";"0";"91";"90";"module.training_block3.exec-9260.GoNoGo3";;;;;;;;;;;;;;;;;;;;;;;;;"1249";"2014-10-02 13:25:36.265";"NST_correctLoc";"6";"1";"FINISHED";"RIGHT";"success";"349";"0";"2014-10-02 13:25:35.015";"1";;;;;;;;;;;;;;;;;;;;;;;;;;;;;;;;;
"sagpjh";"1988";;"Windows 7";"Rachel's Experiment (SCIAT)";"1.0";"1";"1";"1";"1";"1";"1";"2014-10-02 13:20:25.995";"2014-10-02 13:28:53.718";"1";"0";"1";"1";"0";"92";"91";"module.training_block3.exec-9260.GoNoGo3";;;;;;;;;;;;;;;;;;;;;;;;;"1249";"2014-10-02 13:25:38.780";"NST_correctLoc";"2";"1";"FINISHED";"RIGHT";"success";"315";"0";"2014-10-02 13:25:37.530";"1";;;;;;;;;;;;;;;;;;;;;;;;;;;;;;;;;
"sagpjh";"1988";;"Windows 7";"Rachel's Experiment (SCIAT)";"1.0";"1";"1";"1";"1";"1";"1";"2014-10-02 13:20:25.995";"2014-10-02 13:28:53.718";"1";"0";"1";"1";"0";"93";"92";"module.training_block3.exec-9260.GoNoGo3";;;;;;;;;;;;;;;;;;;;;;;;;"1249";"2014-10-02 13:25:41.294";"NST_correctLoc";"10";"1";"FINISHED";"RIGHT";"success";"352";"0";"2014-10-02 13:25:40.044";"2";;;;;;;;;;;;;;;;;;;;;;;;;;;;;;;;;
"sagpjh";"1988";;"Windows 7";"Rachel's Experiment (SCIAT)";"1.0";"1";"1";"1";"1";"1";"1";"2014-10-02 13:20:25.995";"2014-10-02 13:28:53.718";"1";"0";"1";"1";"0";"94";"93";"module.training_block3.exec-9260.GoNoGo3";;;;;;;;;;;;;;;;;;;;;;;;;"1249";"2014-10-02 13:25:43.809";"NST_correctLoc";"17";"1";"FINISHED";"RIGHT";"success";"397";"0";"2014-10-02 13:25:42.559";"2";;;;;;;;;;;;;;;;;;;;;;;;;;;;;;;;;
"sagpjh";"1988";;"Windows 7";"Rachel's Experiment (SCIAT)";"1.0";"1";"1";"1";"1";"1";"1";"2014-10-02 13:20:25.995";"2014-10-02 13:28:53.718";"1";"0";"1";"1";"0";"95";"94";"module.training_block3.exec-9260.GoNoGo3";;;;;;;;;;;;;;;;;;;;;;;;;"1249";"2014-10-02 13:25:46.324";"NST_correctLoc";"9";"1";"FINISHED";"RIGHT";"success";"379";"0";"2014-10-02 13:25:45.074";"2";;;;;;;;;;;;;;;;;;;;;;;;;;;;;;;;;
"sagpjh";"1988";;"Windows 7";"Rachel's Experiment (SCIAT)";"1.0";"1";"1";"1";"1";"1";"1";"2014-10-02 13:20:25.995";"2014-10-02 13:28:53.718";"1";"0";"1";"1";"0";"96";"95";"module.training_block3.exec-9260.GoNoGo3";;;;;;;;;;;;;;;;;;;;;;;;;"1249";"2014-10-02 13:25:48.838";"NST_correctLoc";"30";"0";"FINISHED";"LEFT";"success";"312";"0";"2014-10-02 13:25:47.588";"3";;;;;;;;;;;;;;;;;;;;;;;;;;;;;;;;;
"sagpjh";"1988";;"Windows 7";"Rachel's Experiment (SCIAT)";"1.0";"1";"1";"1";"1";"1";"1";"2014-10-02 13:20:25.995";"2014-10-02 13:28:53.718";"1";"0";"1";"1";"0";"97";"96";"module.training_block3.exec-9260.GoNoGo3";;;;;;;;;;;;;;;;;;;;;;;;;"1249";"2014-10-02 13:25:51.353";"NST_correctLoc";"5";"1";"FINISHED";"RIGHT";"success";"317";"0";"2014-10-02 13:25:50.103";"1";;;;;;;;;;;;;;;;;;;;;;;;;;;;;;;;;
"sagpjh";"1988";;"Windows 7";"Rachel's Experiment (SCIAT)";"1.0";"1";"1";"1";"1";"1";"1";"2014-10-02 13:20:25.995";"2014-10-02 13:28:53.718";"1";"0";"1";"1";"0";"98";"97";"module.training_block3.exec-9260.GoNoGo3";;;;;;;;;;;;;;;;;;;;;;;;;"1249";"2014-10-02 13:25:53.868";"NST_correctLoc";"13";"0";"FINISHED";"LEFT";"success";"339";"0";"2014-10-02 13:25:52.618";"2";;;;;;;;;;;;;;;;;;;;;;;;;;;;;;;;;
"sagpjh";"1988";;"Windows 7";"Rachel's Experiment (SCIAT)";"1.0";"1";"1";"1";"1";"1";"1";"2014-10-02 13:20:25.995";"2014-10-02 13:28:53.718";"1";"0";"1";"1";"0";"99";"98";"module.training_block3.exec-9260.GoNoGo3";;;;;;;;;;;;;;;;;;;;;;;;;"1249";"2014-10-02 13:25:56.382";"NST_correctLoc";"8";"1";"FINISHED";"RIGHT";"success";"328";"0";"2014-10-02 13:25:55.132";"1";;;;;;;;;;;;;;;;;;;;;;;;;;;;;;;;;
"sagpjh";"1988";;"Windows 7";"Rachel's Experiment (SCIAT)";"1.0";"1";"1";"1";"1";"1";"1";"2014-10-02 13:20:25.995";"2014-10-02 13:28:53.718";"1";"0";"1";"1";"0";"100";"99";"module.training_block3.exec-9260.GoNoGo3";;;;;;;;;;;;;;;;;;;;;;;;;"1249";"2014-10-02 13:25:58.897";"NST_correctLoc";"25";"1";"FINISHED";"RIGHT";"success";"349";"0";"2014-10-02 13:25:57.647";"3";;;;;;;;;;;;;;;;;;;;;;;;;;;;;;;;;
"sagpjh";"1988";;"Windows 7";"Rachel's Experiment (SCIAT)";"1.0";"1";"1";"1";"1";"1";"1";"2014-10-02 13:20:25.995";"2014-10-02 13:28:53.718";"1";"0";"1";"1";"0";"101";"100";"module.training_block3.exec-9260.GoNoGo3";;;;;;;;;;;;;;;;;;;;;;;;;"1249";"2014-10-02 13:26:01.412";"NST_correctLoc";"18";"0";"FINISHED";"LEFT";"success";"347";"0";"2014-10-02 13:26:00.162";"3";;;;;;;;;;;;;;;;;;;;;;;;;;;;;;;;;
"sagpjh";"1988";;"Windows 7";"Rachel's Experiment (SCIAT)";"1.0";"1";"1";"1";"1";"1";"1";"2014-10-02 13:20:25.995";"2014-10-02 13:28:53.718";"1";"0";"1";"1";"0";"102";"101";"module.training_block3.exec-9260.GoNoGo3";;;;;;;;;;;;;;;;;;;;;;;;;"1249";"2014-10-02 13:26:03.926";"NST_correctLoc";"1";"0";"FINISHED";"LEFT";"success";"392";"0";"2014-10-02 13:26:02.676";"1";;;;;;;;;;;;;;;;;;;;;;;;;;;;;;;;;
"sagpjh";"1988";;"Windows 7";"Rachel's Experiment (SCIAT)";"1.0";"1";"1";"1";"1";"1";"1";"2014-10-02 13:20:25.995";"2014-10-02 13:28:53.718";"1";"0";"1";"1";"0";"103";"102";"module.training_block3.exec-9260.GoNoGo3";;;;;;;;;;;;;;;;;;;;;;;;;"1249";"2014-10-02 13:26:06.441";"NST_correctLoc";"0";"0";"FINISHED";"LEFT";"success";"397";"0";"2014-10-02 13:26:05.191";"1";;;;;;;;;;;;;;;;;;;;;;;;;;;;;;;;;
"sagpjh";"1988";;"Windows 7";"Rachel's Experiment (SCIAT)";"1.0";"1";"1";"1";"1";"1";"1";"2014-10-02 13:20:25.995";"2014-10-02 13:28:53.718";"1";"0";"1";"1";"0";"104";"103";"module.training_block3.exec-9260.GoNoGo3";;;;;;;;;;;;;;;;;;;;;;;;;"1249";"2014-10-02 13:26:08.956";"NST_correctLoc";"19";"0";"FINISHED";"LEFT";"success";"434";"0";"2014-10-02 13:26:07.706";"3";;;;;;;;;;;;;;;;;;;;;;;;;;;;;;;;;
"sagpjh";"1988";;"Windows 7";"Rachel's Experiment (SCIAT)";"1.0";"1";"1";"1";"1";"1";"1";"2014-10-02 13:20:25.995";"2014-10-02 13:28:53.718";"1";"0";"1";"1";"0";"105";"104";"module.training_block3.exec-9260.GoNoGo3";;;;;;;;;;;;;;;;;;;;;;;;;"1249";"2014-10-02 13:26:11.470";"NST_correctLoc";"16";"1";"FINISHED";"RIGHT";"success";"384";"0";"2014-10-02 13:26:10.220";"2";;;;;;;;;;;;;;;;;;;;;;;;;;;;;;;;;
"sagpjh";"1988";;"Windows 7";"Rachel's Experiment (SCIAT)";"1.0";"1";"1";"1";"1";"1";"1";"2014-10-02 13:20:25.995";"2014-10-02 13:28:53.718";"1";"0";"1";"1";"0";"106";"105";"module.training_block3.exec-9260.GoNoGo3";;;;;;;;;;;;;;;;;;;;;;;;;"1249";"2014-10-02 13:26:13.985";"NST_correctLoc";"21";"0";"FINISHED";"LEFT";"success";"349";"0";"2014-10-02 13:26:12.735";"3";;;;;;;;;;;;;;;;;;;;;;;;;;;;;;;;;
"sagpjh";"1988";;"Windows 7";"Rachel's Experiment (SCIAT)";"1.0";"1";"1";"1";"1";"1";"1";"2014-10-02 13:20:25.995";"2014-10-02 13:28:53.718";"1";"0";"1";"1";"0";"107";"106";"module.training_block3.exec-9260.GoNoGo3";;;;;;;;;;;;;;;;;;;;;;;;;"1249";"2014-10-02 13:26:16.500";"NST_correctLoc";"33";"1";"FINISHED";"RIGHT";"success";"394";"0";"2014-10-02 13:26:15.250";"3";;;;;;;;;;;;;;;;;;;;;;;;;;;;;;;;;
"sagpjh";"1988";;"Windows 7";"Rachel's Experiment (SCIAT)";"1.0";"1";"1";"1";"1";"1";"1";"2014-10-02 13:20:25.995";"2014-10-02 13:28:53.718";"1";"0";"1";"1";"0";"108";"107";"module.training_block3.exec-9260.GoNoGo3";;;;;;;;;;;;;;;;;;;;;;;;;"1249";"2014-10-02 13:26:19.014";"NST_correctLoc";"35";"1";"FINISHED";"RIGHT";"success";"376";"0";"2014-10-02 13:26:17.764";"3";;;;;;;;;;;;;;;;;;;;;;;;;;;;;;;;;
"sagpjh";"1988";;"Windows 7";"Rachel's Experiment (SCIAT)";"1.0";"1";"1";"1";"1";"1";"1";"2014-10-02 13:20:25.995";"2014-10-02 13:28:53.718";"1";"0";"1";"1";"0";"109";"108";"module.training_block3.exec-9260.GoNoGo3";;;;;;;;;;;;;;;;;;;;;;;;;"1249";"2014-10-02 13:26:21.529";"NST_correctLoc";"27";"0";"FINISHED";"LEFT";"success";"365";"0";"2014-10-02 13:26:20.279";"3";;;;;;;;;;;;;;;;;;;;;;;;;;;;;;;;;
"sagpjh";"1988";;"Windows 7";"Rachel's Experiment (SCIAT)";"1.0";"1";"1";"1";"1";"1";"1";"2014-10-02 13:20:25.995";"2014-10-02 13:28:53.718";"1";"0";"1";"1";"0";"110";"109";"module.training_block3.exec-9260.GoNoGo3";;;;;;;;;;;;;;;;;;;;;;;;;"1249";"2014-10-02 13:26:24.043";"NST_correctLoc";"23";"0";"FINISHED";"LEFT";"success";"386";"0";"2014-10-02 13:26:22.793";"3";;;;;;;;;;;;;;;;;;;;;;;;;;;;;;;;;
"sagpjh";"1988";;"Windows 7";"Rachel's Experiment (SCIAT)";"1.0";"1";"1";"1";"1";"1";"1";"2014-10-02 13:20:25.995";"2014-10-02 13:28:53.718";"1";"0";"1";"1";"0";"111";"110";"module.training_block3.exec-9260.GoNoGo3";;;;;;;;;;;;;;;;;;;;;;;;;"1249";"2014-10-02 13:26:26.558";"NST_correctLoc";"3";"0";"FINISHED";"LEFT";"success";"480";"0";"2014-10-02 13:26:25.308";"1";;;;;;;;;;;;;;;;;;;;;;;;;;;;;;;;;
"sagpjh";"1988";;"Windows 7";"Rachel's Experiment (SCIAT)";"1.0";"1";"1";"1";"1";"1";"1";"2014-10-02 13:20:25.995";"2014-10-02 13:28:53.718";"1";"0";"1";"1";"0";"112";"111";"module.training_block3.exec-9260.GoNoGo3";;;;;;;;;;;;;;;;;;;;;;;;;"1249";"2014-10-02 13:26:29.072";"NST_correctLoc";"28";"1";"FINISHED";"RIGHT";"success";"374";"0";"2014-10-02 13:26:27.822";"3";;;;;;;;;;;;;;;;;;;;;;;;;;;;;;;;;
"sagpjh";"1988";;"Windows 7";"Rachel's Experiment (SCIAT)";"1.0";"1";"1";"1";"1";"1";"1";"2014-10-02 13:20:25.995";"2014-10-02 13:28:53.718";"1";"0";"1";"1";"0";"113";"112";"module.training_block3.exec-9260.GoNoGo3";;;;;;;;;;;;;;;;;;;;;;;;;"1249";"2014-10-02 13:26:31.588";"NST_correctLoc";"4";"0";"FINISHED";"LEFT";"success";"417";"0";"2014-10-02 13:26:30.338";"1";;;;;;;;;;;;;;;;;;;;;;;;;;;;;;;;;
"sagpjh";"1988";;"Windows 7";"Rachel's Experiment (SCIAT)";"1.0";"1";"1";"1";"1";"1";"1";"2014-10-02 13:20:25.995";"2014-10-02 13:28:53.718";"1";"0";"1";"1";"0";"114";"113";"module.training_block3.exec-9260.GoNoGo3";;;;;;;;;;;;;;;;;;;;;;;;;"1249";"2014-10-02 13:26:34.103";"NST_correctLoc";"34";"1";"FINISHED";"RIGHT";"success";"470";"0";"2014-10-02 13:26:32.853";"3";;;;;;;;;;;;;;;;;;;;;;;;;;;;;;;;;
"sagpjh";"1988";;"Windows 7";"Rachel's Experiment (SCIAT)";"1.0";"1";"1";"1";"1";"1";"1";"2014-10-02 13:20:25.995";"2014-10-02 13:28:53.718";"1";"0";"1";"1";"0";"115";"114";"module.training_block3.exec-9260.GoNoGo3";;;;;;;;;;;;;;;;;;;;;;;;;"1249";"2014-10-02 13:26:36.617";"NST_correctLoc";"29";"0";"FINISHED";"LEFT";"success";"421";"0";"2014-10-02 13:26:35.367";"3";;;;;;;;;;;;;;;;;;;;;;;;;;;;;;;;;
"sagpjh";"1988";;"Windows 7";"Rachel's Experiment (SCIAT)";"1.0";"1";"1";"1";"1";"1";"1";"2014-10-02 13:20:25.995";"2014-10-02 13:28:53.718";"1";"0";"1";"1";"0";"116";"115";"module.training_block3.exec-9260.GoNoGo3";;;;;;;;;;;;;;;;;;;;;;;;;"1249";"2014-10-02 13:26:39.157";"NST_correctLoc";"15";"1";"FINISHED";"RIGHT";"success";"385";"0";"2014-10-02 13:26:37.907";"2";;;;;;;;;;;;;;;;;;;;;;;;;;;;;;;;;
"sagpjh";"1988";;"Windows 7";"Rachel's Experiment (SCIAT)";"1.0";"1";"1";"1";"1";"1";"1";"2014-10-02 13:20:25.995";"2014-10-02 13:28:53.718";"1";"0";"1";"1";"0";"117";"116";"module.training_block3.exec-9260.GoNoGo3";;;;;;;;;;;;;;;;;;;;;;;;;"1249";"2014-10-02 13:26:41.670";"NST_correctLoc";"31";"0";"FINISHED";"LEFT";"success";"463";"0";"2014-10-02 13:26:40.420";"3";;;;;;;;;;;;;;;;;;;;;;;;;;;;;;;;;
"sagpjh";"1988";;"Windows 7";"Rachel's Experiment (SCIAT)";"1.0";"1";"1";"1";"1";"1";"1";"2014-10-02 13:20:25.995";"2014-10-02 13:28:53.718";"1";"0";"1";"1";"0";"118";"117";"module.training_block3.exec-9260.GoNoGo3";;;;;;;;;;;;;;;;;;;;;;;;;"1249";"2014-10-02 13:26:44.184";"NST_correctLoc";"24";"1";"FINISHED";"RIGHT";"success";"381";"0";"2014-10-02 13:26:42.934";"3";;;;;;;;;;;;;;;;;;;;;;;;;;;;;;;;;
"sagpjh";"1988";;"Windows 7";"Rachel's Experiment (SCIAT)";"1.0";"1";"1";"1";"1";"1";"1";"2014-10-02 13:20:25.995";"2014-10-02 13:28:53.718";"1";"0";"1";"1";"0";"119";"118";"module.training_block3.exec-9260.GoNoGo3";;;;;;;;;;;;;;;;;;;;;;;;;"1249";"2014-10-02 13:26:46.698";"NST_correctLoc";"20";"0";"FINISHED";"LEFT";"success";"379";"0";"2014-10-02 13:26:45.448";"3";;;;;;;;;;;;;;;;;;;;;;;;;;;;;;;;;
"sagpjh";"1988";;"Windows 7";"Rachel's Experiment (SCIAT)";"1.0";"1";"1";"1";"1";"1";"1";"2014-10-02 13:20:25.995";"2014-10-02 13:28:53.718";"1";"0";"1";"1";"0";"120";"119";"module.training_block3.exec-9260.GoNoGo3";;;;;;;;;;;;;;;;;;;;;;;;;"1249";"2014-10-02 13:26:49.211";"NST_correctLoc";"26";"0";"FINISHED";"LEFT";"success";"442";"0";"2014-10-02 13:26:47.961";"3";;;;;;;;;;;;;;;;;;;;;;;;;;;;;;;;;
"sagpjh";"1988";;"Windows 7";"Rachel's Experiment (SCIAT)";"1.0";"1";"1";"1";"1";"1";"1";"2014-10-02 13:20:25.995";"2014-10-02 13:28:53.718";"1";"0";"1";"1";"0";"121";"120";"module.training_block3.exec-9260.GoNoGo3";;;;;;;;;;;;;;;;;;;;;;;;;"1249";"2014-10-02 13:26:51.725";"NST_correctLoc";"12";"1";"FINISHED";"RIGHT";"success";"392";"0";"2014-10-02 13:26:50.475";"2";;;;;;;;;;;;;;;;;;;;;;;;;;;;;;;;;
"sagpjh";"1988";;"Windows 7";"Rachel's Experiment (SCIAT)";"1.0";"1";"1";"1";"1";"1";"1";"2014-10-02 13:20:25.995";"2014-10-02 13:28:53.718";"1";"0";"1";"1";"0";"122";"121";"module.training_block3.exec-9260.GoNoGo3";;;;;;;;;;;;;;;;;;;;;;;;;"1249";"2014-10-02 13:26:54.239";"NST_correctLoc";"32";"0";"FINISHED";"LEFT";"success";"398";"0";"2014-10-02 13:26:52.989";"3";;;;;;;;;;;;;;;;;;;;;;;;;;;;;;;;;
"sagpjh";"1988";;"Windows 7";"Rachel's Experiment (SCIAT)";"1.0";"1";"1";"1";"1";"1";"1";"2014-10-02 13:20:25.995";"2014-10-02 13:28:53.718";"1";"0";"1";"1";"0";"123";"122";"module.training_block3.exec-9260.GoNoGo3";;;;;;;;;;;;;;;;;;;;;;;;;"1250";"2014-10-02 13:26:56.757";"NST_correctLoc";"22";"1";"FINISHED";"RIGHT";"success";"360";"0";"2014-10-02 13:26:55.507";"3";;;;;;;;;;;;;;;;;;;;;;;;;;;;;;;;;
"sagpjh";"1988";;"Windows 7";"Rachel's Experiment (SCIAT)";"1.0";"1";"1";"1";"1";"1";"1";"2014-10-02 13:20:25.995";"2014-10-02 13:28:53.718";"1";"0";"1";"1";"0";"124";"123";"module.training_block4.exec-5701.GoNoGo4";;;;;;;;;;;;;;;;;;;;;;;;;;;;;;;;;;;;;"1249";"2014-10-02 13:27:11.384";"NST_correctLoc";"28";"1";"FINISHED";"RIGHT";"success";"684";"0";"2014-10-02 13:27:10.134";"3";;;;;;;;;;;;;;;;;;;;;
"sagpjh";"1988";;"Windows 7";"Rachel's Experiment (SCIAT)";"1.0";"1";"1";"1";"1";"1";"1";"2014-10-02 13:20:25.995";"2014-10-02 13:28:53.718";"1";"0";"1";"1";"0";"125";"124";"module.training_block4.exec-5701.GoNoGo4";;;;;;;;;;;;;;;;;;;;;;;;;;;;;;;;;;;;;"1249";"2014-10-02 13:27:13.898";"NST_correctLoc";"16";"1";"FINISHED";"RIGHT";"success";"451";"0";"2014-10-02 13:27:12.648";"2";;;;;;;;;;;;;;;;;;;;;
"sagpjh";"1988";;"Windows 7";"Rachel's Experiment (SCIAT)";"1.0";"1";"1";"1";"1";"1";"1";"2014-10-02 13:20:25.995";"2014-10-02 13:28:53.718";"1";"0";"1";"1";"0";"126";"125";"module.training_block4.exec-5701.GoNoGo4";;;;;;;;;;;;;;;;;;;;;;;;;;;;;;;;;;;;;"1249";"2014-10-02 13:27:16.412";"NST_correctLoc";"1";"1";"FINISHED";"RIGHT";"success";"385";"0";"2014-10-02 13:27:15.162";"1";;;;;;;;;;;;;;;;;;;;;
"sagpjh";"1988";;"Windows 7";"Rachel's Experiment (SCIAT)";"1.0";"1";"1";"1";"1";"1";"1";"2014-10-02 13:20:25.995";"2014-10-02 13:28:53.718";"1";"0";"1";"1";"0";"127";"126";"module.training_block4.exec-5701.GoNoGo4";;;;;;;;;;;;;;;;;;;;;;;;;;;;;;;;;;;;;"1249";"2014-10-02 13:27:18.925";"NST_correctLoc";"34";"1";"FINISHED";"RIGHT";"success";"391";"0";"2014-10-02 13:27:17.675";"3";;;;;;;;;;;;;;;;;;;;;
"sagpjh";"1988";;"Windows 7";"Rachel's Experiment (SCIAT)";"1.0";"1";"1";"1";"1";"1";"1";"2014-10-02 13:20:25.995";"2014-10-02 13:28:53.718";"1";"0";"1";"1";"0";"128";"127";"module.training_block4.exec-5701.GoNoGo4";;;;;;;;;;;;;;;;;;;;;;;;;;;;;;;;;;;;;"1249";"2014-10-02 13:27:21.439";"NST_correctLoc";"18";"0";"FINISHED";"LEFT";"success";"365";"0";"2014-10-02 13:27:20.189";"3";;;;;;;;;;;;;;;;;;;;;
"sagpjh";"1988";;"Windows 7";"Rachel's Experiment (SCIAT)";"1.0";"1";"1";"1";"1";"1";"1";"2014-10-02 13:20:25.995";"2014-10-02 13:28:53.718";"1";"0";"1";"1";"0";"129";"128";"module.training_block4.exec-5701.GoNoGo4";;;;;;;;;;;;;;;;;;;;;;;;;;;;;;;;;;;;;"1249";"2014-10-02 13:27:23.953";"NST_correctLoc";"13";"1";"FINISHED";"RIGHT";"success";"364";"0";"2014-10-02 13:27:22.703";"2";;;;;;;;;;;;;;;;;;;;;
"sagpjh";"1988";;"Windows 7";"Rachel's Experiment (SCIAT)";"1.0";"1";"1";"1";"1";"1";"1";"2014-10-02 13:20:25.995";"2014-10-02 13:28:53.718";"1";"0";"1";"1";"0";"130";"129";"module.training_block4.exec-5701.GoNoGo4";;;;;;;;;;;;;;;;;;;;;;;;;;;;;;;;;;;;;"1249";"2014-10-02 13:27:26.466";"NST_correctLoc";"32";"0";"FINISHED";"LEFT";"success";"426";"0";"2014-10-02 13:27:25.216";"3";;;;;;;;;;;;;;;;;;;;;
"sagpjh";"1988";;"Windows 7";"Rachel's Experiment (SCIAT)";"1.0";"1";"1";"1";"1";"1";"1";"2014-10-02 13:20:25.995";"2014-10-02 13:28:53.718";"1";"0";"1";"1";"0";"131";"130";"module.training_block4.exec-5701.GoNoGo4";;;;;;;;;;;;;;;;;;;;;;;;;;;;;;;;;;;;;"1249";"2014-10-02 13:27:28.980";"NST_correctLoc";"19";"1";"FINISHED";"RIGHT";"success";"376";"0";"2014-10-02 13:27:27.730";"3";;;;;;;;;;;;;;;;;;;;;
"sagpjh";"1988";;"Windows 7";"Rachel's Experiment (SCIAT)";"1.0";"1";"1";"1";"1";"1";"1";"2014-10-02 13:20:25.995";"2014-10-02 13:28:53.718";"1";"0";"1";"1";"0";"132";"131";"module.training_block4.exec-5701.GoNoGo4";;;;;;;;;;;;;;;;;;;;;;;;;;;;;;;;;;;;;"1249";"2014-10-02 13:27:31.494";"NST_correctLoc";"35";"0";"FINISHED";"LEFT";"success";"383";"0";"2014-10-02 13:27:30.244";"3";;;;;;;;;;;;;;;;;;;;;
"sagpjh";"1988";;"Windows 7";"Rachel's Experiment (SCIAT)";"1.0";"1";"1";"1";"1";"1";"1";"2014-10-02 13:20:25.995";"2014-10-02 13:28:53.718";"1";"0";"1";"1";"0";"133";"132";"module.training_block4.exec-5701.GoNoGo4";;;;;;;;;;;;;;;;;;;;;;;;;;;;;;;;;;;;;"1249";"2014-10-02 13:27:34.007";"NST_correctLoc";"8";"0";"FINISHED";"LEFT";"success";"333";"0";"2014-10-02 13:27:32.757";"1";;;;;;;;;;;;;;;;;;;;;
"sagpjh";"1988";;"Windows 7";"Rachel's Experiment (SCIAT)";"1.0";"1";"1";"1";"1";"1";"1";"2014-10-02 13:20:25.995";"2014-10-02 13:28:53.718";"1";"0";"1";"1";"0";"134";"133";"module.training_block4.exec-5701.GoNoGo4";;;;;;;;;;;;;;;;;;;;;;;;;;;;;;;;;;;;;"1249";"2014-10-02 13:27:36.525";"NST_correctLoc";"30";"0";"FINISHED";"LEFT";"success";"383";"0";"2014-10-02 13:27:35.275";"3";;;;;;;;;;;;;;;;;;;;;
"sagpjh";"1988";;"Windows 7";"Rachel's Experiment (SCIAT)";"1.0";"1";"1";"1";"1";"1";"1";"2014-10-02 13:20:25.995";"2014-10-02 13:28:53.718";"1";"0";"1";"1";"0";"135";"134";"module.training_block4.exec-5701.GoNoGo4";;;;;;;;;;;;;;;;;;;;;;;;;;;;;;;;;;;;;"1249";"2014-10-02 13:27:39.041";"NST_correctLoc";"21";"1";"FINISHED";"RIGHT";"success";"332";"0";"2014-10-02 13:27:37.791";"3";;;;;;;;;;;;;;;;;;;;;
"sagpjh";"1988";;"Windows 7";"Rachel's Experiment (SCIAT)";"1.0";"1";"1";"1";"1";"1";"1";"2014-10-02 13:20:25.995";"2014-10-02 13:28:53.718";"1";"0";"1";"1";"0";"136";"135";"module.training_block4.exec-5701.GoNoGo4";;;;;;;;;;;;;;;;;;;;;;;;;;;;;;;;;;;;;"1249";"2014-10-02 13:27:41.554";"NST_correctLoc";"2";"1";"FINISHED";"RIGHT";"success";"338";"0";"2014-10-02 13:27:40.304";"1";;;;;;;;;;;;;;;;;;;;;
"sagpjh";"1988";;"Windows 7";"Rachel's Experiment (SCIAT)";"1.0";"1";"1";"1";"1";"1";"1";"2014-10-02 13:20:25.995";"2014-10-02 13:28:53.718";"1";"0";"1";"1";"0";"137";"136";"module.training_block4.exec-5701.GoNoGo4";;;;;;;;;;;;;;;;;;;;;;;;;;;;;;;;;;;;;"1249";"2014-10-02 13:27:44.068";"NST_correctLoc";"20";"0";"FINISHED";"LEFT";"success";"360";"0";"2014-10-02 13:27:42.818";"3";;;;;;;;;;;;;;;;;;;;;
"sagpjh";"1988";;"Windows 7";"Rachel's Experiment (SCIAT)";"1.0";"1";"1";"1";"1";"1";"1";"2014-10-02 13:20:25.995";"2014-10-02 13:28:53.718";"1";"0";"1";"1";"0";"138";"137";"module.training_block4.exec-5701.GoNoGo4";;;;;;;;;;;;;;;;;;;;;;;;;;;;;;;;;;;;;"1249";"2014-10-02 13:27:46.583";"NST_correctLoc";"6";"1";"FINISHED";"RIGHT";"success";"325";"0";"2014-10-02 13:27:45.333";"1";;;;;;;;;;;;;;;;;;;;;
"sagpjh";"1988";;"Windows 7";"Rachel's Experiment (SCIAT)";"1.0";"1";"1";"1";"1";"1";"1";"2014-10-02 13:20:25.995";"2014-10-02 13:28:53.718";"1";"0";"1";"1";"0";"139";"138";"module.training_block4.exec-5701.GoNoGo4";;;;;;;;;;;;;;;;;;;;;;;;;;;;;;;;;;;;;"1249";"2014-10-02 13:27:49.096";"NST_correctLoc";"12";"0";"FINISHED";"LEFT";"success";"316";"0";"2014-10-02 13:27:47.846";"2";;;;;;;;;;;;;;;;;;;;;
"sagpjh";"1988";;"Windows 7";"Rachel's Experiment (SCIAT)";"1.0";"1";"1";"1";"1";"1";"1";"2014-10-02 13:20:25.995";"2014-10-02 13:28:53.718";"1";"0";"1";"1";"0";"140";"139";"module.training_block4.exec-5701.GoNoGo4";;;;;;;;;;;;;;;;;;;;;;;;;;;;;;;;;;;;;"1249";"2014-10-02 13:27:51.610";"NST_correctLoc";"14";"1";"FINISHED";"RIGHT";"success";"482";"0";"2014-10-02 13:27:50.360";"2";;;;;;;;;;;;;;;;;;;;;
"sagpjh";"1988";;"Windows 7";"Rachel's Experiment (SCIAT)";"1.0";"1";"1";"1";"1";"1";"1";"2014-10-02 13:20:25.995";"2014-10-02 13:28:53.718";"1";"0";"1";"1";"0";"141";"140";"module.training_block4.exec-5701.GoNoGo4";;;;;;;;;;;;;;;;;;;;;;;;;;;;;;;;;;;;;"1249";"2014-10-02 13:27:54.124";"NST_correctLoc";"0";"0";"FINISHED";"LEFT";"success";"328";"0";"2014-10-02 13:27:52.874";"1";;;;;;;;;;;;;;;;;;;;;
"sagpjh";"1988";;"Windows 7";"Rachel's Experiment (SCIAT)";"1.0";"1";"1";"1";"1";"1";"1";"2014-10-02 13:20:25.995";"2014-10-02 13:28:53.718";"1";"0";"1";"1";"0";"142";"141";"module.training_block4.exec-5701.GoNoGo4";;;;;;;;;;;;;;;;;;;;;;;;;;;;;;;;;;;;;"1249";"2014-10-02 13:27:56.637";"NST_correctLoc";"22";"1";"FINISHED";"RIGHT";"success";"279";"0";"2014-10-02 13:27:55.387";"3";;;;;;;;;;;;;;;;;;;;;
"sagpjh";"1988";;"Windows 7";"Rachel's Experiment (SCIAT)";"1.0";"1";"1";"1";"1";"1";"1";"2014-10-02 13:20:25.995";"2014-10-02 13:28:53.718";"1";"0";"1";"1";"0";"143";"142";"module.training_block4.exec-5701.GoNoGo4";;;;;;;;;;;;;;;;;;;;;;;;;;;;;;;;;;;;;"1249";"2014-10-02 13:27:59.151";"NST_correctLoc";"4";"1";"FINISHED";"RIGHT";"success";"445";"0";"2014-10-02 13:27:57.901";"1";;;;;;;;;;;;;;;;;;;;;
"sagpjh";"1988";;"Windows 7";"Rachel's Experiment (SCIAT)";"1.0";"1";"1";"1";"1";"1";"1";"2014-10-02 13:20:25.995";"2014-10-02 13:28:53.718";"1";"0";"1";"1";"0";"144";"143";"module.training_block4.exec-5701.GoNoGo4";;;;;;;;;;;;;;;;;;;;;;;;;;;;;;;;;;;;;"1249";"2014-10-02 13:28:01.665";"NST_correctLoc";"27";"1";"FINISHED";"RIGHT";"success";"307";"0";"2014-10-02 13:28:00.415";"3";;;;;;;;;;;;;;;;;;;;;
"sagpjh";"1988";;"Windows 7";"Rachel's Experiment (SCIAT)";"1.0";"1";"1";"1";"1";"1";"1";"2014-10-02 13:20:25.995";"2014-10-02 13:28:53.718";"1";"0";"1";"1";"0";"145";"144";"module.training_block4.exec-5701.GoNoGo4";;;;;;;;;;;;;;;;;;;;;;;;;;;;;;;;;;;;;"1249";"2014-10-02 13:28:04.178";"NST_correctLoc";"29";"1";"FINISHED";"RIGHT";"success";"865";"0";"2014-10-02 13:28:02.928";"3";;;;;;;;;;;;;;;;;;;;;
"sagpjh";"1988";;"Windows 7";"Rachel's Experiment (SCIAT)";"1.0";"1";"1";"1";"1";"1";"1";"2014-10-02 13:20:25.995";"2014-10-02 13:28:53.718";"1";"0";"1";"1";"0";"146";"145";"module.training_block4.exec-5701.GoNoGo4";;;;;;;;;;;;;;;;;;;;;;;;;;;;;;;;;;;;;"1249";"2014-10-02 13:28:06.692";"NST_correctLoc";"9";"1";"FINISHED";"RIGHT";"success";"328";"0";"2014-10-02 13:28:05.442";"2";;;;;;;;;;;;;;;;;;;;;
"sagpjh";"1988";;"Windows 7";"Rachel's Experiment (SCIAT)";"1.0";"1";"1";"1";"1";"1";"1";"2014-10-02 13:20:25.995";"2014-10-02 13:28:53.718";"1";"0";"1";"1";"0";"147";"146";"module.training_block4.exec-5701.GoNoGo4";;;;;;;;;;;;;;;;;;;;;;;;;;;;;;;;;;;;;"1249";"2014-10-02 13:28:09.206";"NST_correctLoc";"33";"1";"FINISHED";"RIGHT";"success";"350";"0";"2014-10-02 13:28:07.956";"3";;;;;;;;;;;;;;;;;;;;;
"sagpjh";"1988";;"Windows 7";"Rachel's Experiment (SCIAT)";"1.0";"1";"1";"1";"1";"1";"1";"2014-10-02 13:20:25.995";"2014-10-02 13:28:53.718";"1";"0";"1";"1";"0";"148";"147";"module.training_block4.exec-5701.GoNoGo4";;;;;;;;;;;;;;;;;;;;;;;;;;;;;;;;;;;;;"1249";"2014-10-02 13:28:11.719";"NST_correctLoc";"23";"1";"FINISHED";"RIGHT";"success";"340";"0";"2014-10-02 13:28:10.469";"3";;;;;;;;;;;;;;;;;;;;;
"sagpjh";"1988";;"Windows 7";"Rachel's Experiment (SCIAT)";"1.0";"1";"1";"1";"1";"1";"1";"2014-10-02 13:20:25.995";"2014-10-02 13:28:53.718";"1";"0";"1";"1";"0";"149";"148";"module.training_block4.exec-5701.GoNoGo4";;;;;;;;;;;;;;;;;;;;;;;;;;;;;;;;;;;;;"1249";"2014-10-02 13:28:14.233";"NST_correctLoc";"11";"0";"FINISHED";"LEFT";"success";"363";"0";"2014-10-02 13:28:12.983";"2";;;;;;;;;;;;;;;;;;;;;
"sagpjh";"1988";;"Windows 7";"Rachel's Experiment (SCIAT)";"1.0";"1";"1";"1";"1";"1";"1";"2014-10-02 13:20:25.995";"2014-10-02 13:28:53.718";"1";"0";"1";"1";"0";"150";"149";"module.training_block4.exec-5701.GoNoGo4";;;;;;;;;;;;;;;;;;;;;;;;;;;;;;;;;;;;;"1249";"2014-10-02 13:28:16.747";"NST_correctLoc";"5";"1";"FINISHED";"RIGHT";"success";"297";"0";"2014-10-02 13:28:15.497";"1";;;;;;;;;;;;;;;;;;;;;
"sagpjh";"1988";;"Windows 7";"Rachel's Experiment (SCIAT)";"1.0";"1";"1";"1";"1";"1";"1";"2014-10-02 13:20:25.995";"2014-10-02 13:28:53.718";"1";"0";"1";"1";"0";"151";"150";"module.training_block4.exec-5701.GoNoGo4";;;;;;;;;;;;;;;;;;;;;;;;;;;;;;;;;;;;;"1249";"2014-10-02 13:28:19.260";"NST_correctLoc";"31";"1";"FINISHED";"RIGHT";"success";"375";"0";"2014-10-02 13:28:18.010";"3";;;;;;;;;;;;;;;;;;;;;
"sagpjh";"1988";;"Windows 7";"Rachel's Experiment (SCIAT)";"1.0";"1";"1";"1";"1";"1";"1";"2014-10-02 13:20:25.995";"2014-10-02 13:28:53.718";"1";"0";"1";"1";"0";"152";"151";"module.training_block4.exec-5701.GoNoGo4";;;;;;;;;;;;;;;;;;;;;;;;;;;;;;;;;;;;;"1249";"2014-10-02 13:28:21.774";"NST_correctLoc";"10";"1";"FINISHED";"RIGHT";"success";"325";"0";"2014-10-02 13:28:20.524";"2";;;;;;;;;;;;;;;;;;;;;
"sagpjh";"1988";;"Windows 7";"Rachel's Experiment (SCIAT)";"1.0";"1";"1";"1";"1";"1";"1";"2014-10-02 13:20:25.995";"2014-10-02 13:28:53.718";"1";"0";"1";"1";"0";"153";"152";"module.training_block4.exec-5701.GoNoGo4";;;;;;;;;;;;;;;;;;;;;;;;;;;;;;;;;;;;;"1249";"2014-10-02 13:28:24.288";"NST_correctLoc";"3";"1";"FINISHED";"RIGHT";"success";"332";"0";"2014-10-02 13:28:23.038";"1";;;;;;;;;;;;;;;;;;;;;
"sagpjh";"1988";;"Windows 7";"Rachel's Experiment (SCIAT)";"1.0";"1";"1";"1";"1";"1";"1";"2014-10-02 13:20:25.995";"2014-10-02 13:28:53.718";"1";"0";"1";"1";"0";"154";"153";"module.training_block4.exec-5701.GoNoGo4";;;;;;;;;;;;;;;;;;;;;;;;;;;;;;;;;;;;;"1249";"2014-10-02 13:28:26.801";"NST_correctLoc";"24";"1";"FINISHED";"RIGHT";"success";"298";"0";"2014-10-02 13:28:25.551";"3";;;;;;;;;;;;;;;;;;;;;
"sagpjh";"1988";;"Windows 7";"Rachel's Experiment (SCIAT)";"1.0";"1";"1";"1";"1";"1";"1";"2014-10-02 13:20:25.995";"2014-10-02 13:28:53.718";"1";"0";"1";"1";"0";"155";"154";"module.training_block4.exec-5701.GoNoGo4";;;;;;;;;;;;;;;;;;;;;;;;;;;;;;;;;;;;;"1249";"2014-10-02 13:28:29.315";"NST_correctLoc";"7";"1";"FINISHED";"RIGHT";"success";"320";"0";"2014-10-02 13:28:28.065";"1";;;;;;;;;;;;;;;;;;;;;
"sagpjh";"1988";;"Windows 7";"Rachel's Experiment (SCIAT)";"1.0";"1";"1";"1";"1";"1";"1";"2014-10-02 13:20:25.995";"2014-10-02 13:28:53.718";"1";"0";"1";"1";"0";"156";"155";"module.training_block4.exec-5701.GoNoGo4";;;;;;;;;;;;;;;;;;;;;;;;;;;;;;;;;;;;;"1249";"2014-10-02 13:28:31.829";"NST_correctLoc";"17";"0";"FINISHED";"LEFT";"success";"326";"0";"2014-10-02 13:28:30.579";"2";;;;;;;;;;;;;;;;;;;;;
"sagpjh";"1988";;"Windows 7";"Rachel's Experiment (SCIAT)";"1.0";"1";"1";"1";"1";"1";"1";"2014-10-02 13:20:25.995";"2014-10-02 13:28:53.718";"1";"0";"1";"1";"0";"157";"156";"module.training_block4.exec-5701.GoNoGo4";;;;;;;;;;;;;;;;;;;;;;;;;;;;;;;;;;;;;"1250";"2014-10-02 13:28:34.346";"NST_correctLoc";"15";"0";"FINISHED";"LEFT";"success";"345";"0";"2014-10-02 13:28:33.096";"2";;;;;;;;;;;;;;;;;;;;;
"sagpjh";"1988";;"Windows 7";"Rachel's Experiment (SCIAT)";"1.0";"1";"1";"1";"1";"1";"1";"2014-10-02 13:20:25.995";"2014-10-02 13:28:53.718";"1";"0";"1";"1";"0";"158";"157";"module.training_block4.exec-5701.GoNoGo4";;;;;;;;;;;;;;;;;;;;;;;;;;;;;;;;;;;;;"1249";"2014-10-02 13:28:36.860";"NST_correctLoc";"25";"0";"FINISHED";"LEFT";"success";"367";"0";"2014-10-02 13:28:35.610";"3";;;;;;;;;;;;;;;;;;;;;
"sagpjh";"1988";;"Windows 7";"Rachel's Experiment (SCIAT)";"1.0";"1";"1";"1";"1";"1";"1";"2014-10-02 13:20:25.995";"2014-10-02 13:28:53.718";"1";"0";"1";"1";"0";"159";"158";"module.training_block4.exec-5701.GoNoGo4";;;;;;;;;;;;;;;;;;;;;;;;;;;;;;;;;;;;;"1249";"2014-10-02 13:28:39.374";"NST_correctLoc";"26";"1";"FINISHED";"RIGHT";"success";"349";"0";"2014-10-02 13:28:38.124";"3";;;;;;;;;;;;;;;;;;;;;
