"user.name";"user.yearOfBirth";"user.sex";"user.osName";"module.name";"module.version";"module.online.subject.code";"module.online.study.id";"module.online.module.nr";"module.online.group.nr";"session.id";"session.index";"session.startTime";"session.endTime";"session.completed";"session.node-1737.blockOrder";"session.node-1737.IATorder";"session.node-1737.keyOrder";"session.node-2339.conditionType";"trial.id";"trial.index";"trial.name";"trial.GoNoGo1.durationTime";"trial.GoNoGo1.endTime";"trial.GoNoGo1.Error Type";"trial.GoNoGo1.icon";"trial.GoNoGo1.location";"trial.GoNoGo1.outcome";"trial.GoNoGo1.response";"trial.GoNoGo1.result";"trial.GoNoGo1.RT";"trial.GoNoGo1.signal";"trial.GoNoGo1.startTime";"trial.GoNoGo1.stimulus type";"trial.GoNoGo2.durationTime";"trial.GoNoGo2.endTime";"trial.GoNoGo2.Error Type";"trial.GoNoGo2.icon";"trial.GoNoGo2.location";"trial.GoNoGo2.outcome";"trial.GoNoGo2.response";"trial.GoNoGo2.result";"trial.GoNoGo2.RT";"trial.GoNoGo2.signal";"trial.GoNoGo2.startTime";"trial.GoNoGo2.stimulus type";"trial.GoNoGo3.durationTime";"trial.GoNoGo3.endTime";"trial.GoNoGo3.Error Type";"trial.GoNoGo3.icon";"trial.GoNoGo3.location";"trial.GoNoGo3.outcome";"trial.GoNoGo3.response";"trial.GoNoGo3.result";"trial.GoNoGo3.RT";"trial.GoNoGo3.signal";"trial.GoNoGo3.startTime";"trial.GoNoGo3.stimulus type";"trial.GoNoGo4.durationTime";"trial.GoNoGo4.endTime";"trial.GoNoGo4.Error Type";"trial.GoNoGo4.icon";"trial.GoNoGo4.location";"trial.GoNoGo4.outcome";"trial.GoNoGo4.response";"trial.GoNoGo4.result";"trial.GoNoGo4.RT";"trial.GoNoGo4.signal";"trial.GoNoGo4.startTime";"trial.GoNoGo4.stimulus type";"trial.GoNoGo_Practice.durationTime";"trial.GoNoGo_Practice.endTime";"trial.GoNoGo_Practice.icon";"trial.GoNoGo_Practice.location";"trial.GoNoGo_Practice.outcome";"trial.GoNoGo_Practice.response";"trial.GoNoGo_Practice.result";"trial.GoNoGo_Practice.RT";"trial.GoNoGo_Practice.signal";"trial.GoNoGo_Practice.startTime";"trial.GoNoGo_Practice.stimulus type";"trial.GoNoGo_Tutorial.durationTime";"trial.GoNoGo_Tutorial.endTime";"trial.GoNoGo_Tutorial.icon";"trial.GoNoGo_Tutorial.location";"trial.GoNoGo_Tutorial.outcome";"trial.GoNoGo_Tutorial.response";"trial.GoNoGo_Tutorial.result";"trial.GoNoGo_Tutorial.RT";"trial.GoNoGo_Tutorial.signal";"trial.GoNoGo_Tutorial.startTime"
"!(km*(";"1989";;"Windows 7";"Rachel's Experiment (SCIAT)";"1.0";"1";"1";"1";"1";"1";"1";"2014-08-06 11:20:40.289";"2014-08-06 11:30:44.971";"1";"1";"1";"1";"0";"1";"0";"module.GoNoGotutorial.exec-5928.GoNoGo_Tutorial";;;;;;;;;;;;;;;;;;;;;;;;;;;;;;;;;;;;;;;;;;;;;;;;;;;;;;;;;;;;"4001";"2014-08-06 11:22:45.917";"leftResponse";"0";"FINISHED";"LEFT";"success";"1291";"0";"2014-08-06 11:22:41.915"
"!(km*(";"1989";;"Windows 7";"Rachel's Experiment (SCIAT)";"1.0";"1";"1";"1";"1";"1";"1";"2014-08-06 11:20:40.289";"2014-08-06 11:30:44.971";"1";"1";"1";"1";"0";"2";"1";"module.GoNoGotutorial.exec-5928.GoNoGo_Tutorial";;;;;;;;;;;;;;;;;;;;;;;;;;;;;;;;;;;;;;;;;;;;;;;;;;;;;;;;;;;;"4000";"2014-08-06 11:22:51.265";"rightResponse";"1";"FINISHED";"RIGHT";"success";"1292";"0";"2014-08-06 11:22:47.265"
"!(km*(";"1989";;"Windows 7";"Rachel's Experiment (SCIAT)";"1.0";"1";"1";"1";"1";"1";"1";"2014-08-06 11:20:40.289";"2014-08-06 11:30:44.971";"1";"1";"1";"1";"0";"3";"2";"module.GoNoGotutorial.exec-5928.GoNoGo_Tutorial";;;;;;;;;;;;;;;;;;;;;;;;;;;;;;;;;;;;;;;;;;;;;;;;;;;;;;;;;;;;"3999";"2014-08-06 11:22:56.596";"quickResponse";"0";"FINISHED";"NONE";"failure";"0";"0";"2014-08-06 11:22:52.596"
"!(km*(";"1989";;"Windows 7";"Rachel's Experiment (SCIAT)";"1.0";"1";"1";"1";"1";"1";"1";"2014-08-06 11:20:40.289";"2014-08-06 11:30:44.971";"1";"1";"1";"1";"0";"4";"3";"module.GoNoGopractice.exec-2443.GoNoGo_Practice";;;;;;;;;;;;;;;;;;;;;;;;;;;;;;;;;;;;;;;;;;;;;;;;;"2019";"2014-08-06 11:23:05.003";"18";"0";"FINISHED";"LEFT";"success";"430";"0";"2014-08-06 11:23:02.984";"3";;;;;;;;;;
"!(km*(";"1989";;"Windows 7";"Rachel's Experiment (SCIAT)";"1.0";"1";"1";"1";"1";"1";"1";"2014-08-06 11:20:40.289";"2014-08-06 11:30:44.971";"1";"1";"1";"1";"0";"5";"4";"module.GoNoGopractice.exec-2443.GoNoGo_Practice";;;;;;;;;;;;;;;;;;;;;;;;;;;;;;;;;;;;;;;;;;;;;;;;;"1952";"2014-08-06 11:23:08.280";"21";"1";"FINISHED";"RIGHT";"success";"393";"0";"2014-08-06 11:23:06.327";"3";;;;;;;;;;
"!(km*(";"1989";;"Windows 7";"Rachel's Experiment (SCIAT)";"1.0";"1";"1";"1";"1";"1";"1";"2014-08-06 11:20:40.289";"2014-08-06 11:30:44.971";"1";"1";"1";"1";"0";"6";"5";"module.GoNoGopractice.exec-2443.GoNoGo_Practice";;;;;;;;;;;;;;;;;;;;;;;;;;;;;;;;;;;;;;;;;;;;;;;;;"1964";"2014-08-06 11:23:11.718";"14";"1";"FINISHED";"RIGHT";"success";"380";"0";"2014-08-06 11:23:09.754";"2";;;;;;;;;;
"!(km*(";"1989";;"Windows 7";"Rachel's Experiment (SCIAT)";"1.0";"1";"1";"1";"1";"1";"1";"2014-08-06 11:20:40.289";"2014-08-06 11:30:44.971";"1";"1";"1";"1";"0";"7";"6";"module.GoNoGopractice.exec-2443.GoNoGo_Practice";;;;;;;;;;;;;;;;;;;;;;;;;;;;;;;;;;;;;;;;;;;;;;;;;"1952";"2014-08-06 11:23:14.998";"26";"0";"FINISHED";"LEFT";"success";"355";"0";"2014-08-06 11:23:13.045";"3";;;;;;;;;;
"!(km*(";"1989";;"Windows 7";"Rachel's Experiment (SCIAT)";"1.0";"1";"1";"1";"1";"1";"1";"2014-08-06 11:20:40.289";"2014-08-06 11:30:44.971";"1";"1";"1";"1";"0";"8";"7";"module.GoNoGopractice.exec-2443.GoNoGo_Practice";;;;;;;;;;;;;;;;;;;;;;;;;;;;;;;;;;;;;;;;;;;;;;;;;"1953";"2014-08-06 11:23:18.268";"2";"0";"FINISHED";"LEFT";"success";"370";"0";"2014-08-06 11:23:16.315";"1";;;;;;;;;;
"!(km*(";"1989";;"Windows 7";"Rachel's Experiment (SCIAT)";"1.0";"1";"1";"1";"1";"1";"1";"2014-08-06 11:20:40.289";"2014-08-06 11:30:44.971";"1";"1";"1";"1";"0";"9";"8";"module.GoNoGopractice.exec-2443.GoNoGo_Practice";;;;;;;;;;;;;;;;;;;;;;;;;;;;;;;;;;;;;;;;;;;;;;;;;"1950";"2014-08-06 11:23:21.546";"30";"0";"FINISHED";"LEFT";"success";"345";"0";"2014-08-06 11:23:19.595";"3";;;;;;;;;;
"!(km*(";"1989";;"Windows 7";"Rachel's Experiment (SCIAT)";"1.0";"1";"1";"1";"1";"1";"1";"2014-08-06 11:20:40.289";"2014-08-06 11:30:44.971";"1";"1";"1";"1";"0";"10";"9";"module.GoNoGopractice.exec-2443.GoNoGo_Practice";;;;;;;;;;;;;;;;;;;;;;;;;;;;;;;;;;;;;;;;;;;;;;;;;"1951";"2014-08-06 11:23:24.812";"6";"1";"FINISHED";"RIGHT";"success";"366";"0";"2014-08-06 11:23:22.860";"1";;;;;;;;;;
"!(km*(";"1989";;"Windows 7";"Rachel's Experiment (SCIAT)";"1.0";"1";"1";"1";"1";"1";"1";"2014-08-06 11:20:40.289";"2014-08-06 11:30:44.971";"1";"1";"1";"1";"0";"11";"10";"module.GoNoGopractice.exec-2443.GoNoGo_Practice";;;;;;;;;;;;;;;;;;;;;;;;;;;;;;;;;;;;;;;;;;;;;;;;;"1950";"2014-08-06 11:23:28.074";"34";"0";"FINISHED";"LEFT";"success";"336";"0";"2014-08-06 11:23:26.123";"3";;;;;;;;;;
"!(km*(";"1989";;"Windows 7";"Rachel's Experiment (SCIAT)";"1.0";"1";"1";"1";"1";"1";"1";"2014-08-06 11:20:40.289";"2014-08-06 11:30:44.971";"1";"1";"1";"1";"0";"12";"11";"module.GoNoGopractice.exec-2443.GoNoGo_Practice";;;;;;;;;;;;;;;;;;;;;;;;;;;;;;;;;;;;;;;;;;;;;;;;;"1950";"2014-08-06 11:23:31.342";"23";"1";"FINISHED";"RIGHT";"success";"355";"0";"2014-08-06 11:23:29.391";"3";;;;;;;;;;
"!(km*(";"1989";;"Windows 7";"Rachel's Experiment (SCIAT)";"1.0";"1";"1";"1";"1";"1";"1";"2014-08-06 11:20:40.289";"2014-08-06 11:30:44.971";"1";"1";"1";"1";"0";"13";"12";"module.GoNoGopractice.exec-2443.GoNoGo_Practice";;;;;;;;;;;;;;;;;;;;;;;;;;;;;;;;;;;;;;;;;;;;;;;;;"1951";"2014-08-06 11:23:34.617";"13";"0";"FINISHED";"LEFT";"success";"347";"0";"2014-08-06 11:23:32.665";"2";;;;;;;;;;
"!(km*(";"1989";;"Windows 7";"Rachel's Experiment (SCIAT)";"1.0";"1";"1";"1";"1";"1";"1";"2014-08-06 11:20:40.289";"2014-08-06 11:30:44.971";"1";"1";"1";"1";"0";"14";"13";"module.GoNoGopractice.exec-2443.GoNoGo_Practice";;;;;;;;;;;;;;;;;;;;;;;;;;;;;;;;;;;;;;;;;;;;;;;;;"1952";"2014-08-06 11:23:37.904";"3";"1";"FINISHED";"RIGHT";"success";"342";"0";"2014-08-06 11:23:35.951";"1";;;;;;;;;;
"!(km*(";"1989";;"Windows 7";"Rachel's Experiment (SCIAT)";"1.0";"1";"1";"1";"1";"1";"1";"2014-08-06 11:20:40.289";"2014-08-06 11:30:44.971";"1";"1";"1";"1";"0";"15";"14";"module.GoNoGopractice.exec-2443.GoNoGo_Practice";;;;;;;;;;;;;;;;;;;;;;;;;;;;;;;;;;;;;;;;;;;;;;;;;"1952";"2014-08-06 11:23:41.177";"27";"1";"FINISHED";"RIGHT";"success";"362";"0";"2014-08-06 11:23:39.225";"3";;;;;;;;;;
"!(km*(";"1989";;"Windows 7";"Rachel's Experiment (SCIAT)";"1.0";"1";"1";"1";"1";"1";"1";"2014-08-06 11:20:40.289";"2014-08-06 11:30:44.971";"1";"1";"1";"1";"0";"16";"15";"module.training_block1.exec-6717.GoNoGo1";"1251";"2014-08-06 11:23:54.035";"NST_correctLoc";"35";"1";"FINISHED";"RIGHT";"success";"394";"0";"2014-08-06 11:23:52.782";"3";;;;;;;;;;;;;;;;;;;;;;;;;;;;;;;;;;;;;;;;;;;;;;;;;;;;;;;;;
"!(km*(";"1989";;"Windows 7";"Rachel's Experiment (SCIAT)";"1.0";"1";"1";"1";"1";"1";"1";"2014-08-06 11:20:40.289";"2014-08-06 11:30:44.971";"1";"1";"1";"1";"0";"17";"16";"module.training_block1.exec-6717.GoNoGo1";"1250";"2014-08-06 11:23:56.606";"NST_correctLoc";"19";"0";"FINISHED";"LEFT";"success";"334";"0";"2014-08-06 11:23:55.356";"3";;;;;;;;;;;;;;;;;;;;;;;;;;;;;;;;;;;;;;;;;;;;;;;;;;;;;;;;;
"!(km*(";"1989";;"Windows 7";"Rachel's Experiment (SCIAT)";"1.0";"1";"1";"1";"1";"1";"1";"2014-08-06 11:20:40.289";"2014-08-06 11:30:44.971";"1";"1";"1";"1";"0";"18";"17";"module.training_block1.exec-6717.GoNoGo1";"1250";"2014-08-06 11:23:59.170";"NST_correctLoc";"11";"0";"FINISHED";"LEFT";"success";"318";"0";"2014-08-06 11:23:57.920";"2";;;;;;;;;;;;;;;;;;;;;;;;;;;;;;;;;;;;;;;;;;;;;;;;;;;;;;;;;
"!(km*(";"1989";;"Windows 7";"Rachel's Experiment (SCIAT)";"1.0";"1";"1";"1";"1";"1";"1";"2014-08-06 11:20:40.289";"2014-08-06 11:30:44.971";"1";"1";"1";"1";"0";"19";"18";"module.training_block1.exec-6717.GoNoGo1";"1249";"2014-08-06 11:24:01.731";"NST_correctLoc";"18";"1";"FINISHED";"RIGHT";"success";"313";"0";"2014-08-06 11:24:00.481";"3";;;;;;;;;;;;;;;;;;;;;;;;;;;;;;;;;;;;;;;;;;;;;;;;;;;;;;;;;
"!(km*(";"1989";;"Windows 7";"Rachel's Experiment (SCIAT)";"1.0";"1";"1";"1";"1";"1";"1";"2014-08-06 11:20:40.289";"2014-08-06 11:30:44.971";"1";"1";"1";"1";"0";"20";"19";"module.training_block1.exec-6717.GoNoGo1";"1249";"2014-08-06 11:24:04.296";"NST_correctLoc";"31";"0";"FINISHED";"LEFT";"success";"345";"0";"2014-08-06 11:24:03.046";"3";;;;;;;;;;;;;;;;;;;;;;;;;;;;;;;;;;;;;;;;;;;;;;;;;;;;;;;;;
"!(km*(";"1989";;"Windows 7";"Rachel's Experiment (SCIAT)";"1.0";"1";"1";"1";"1";"1";"1";"2014-08-06 11:20:40.289";"2014-08-06 11:30:44.971";"1";"1";"1";"1";"0";"21";"20";"module.training_block1.exec-6717.GoNoGo1";"1249";"2014-08-06 11:24:06.928";"NST_correctLoc";"24";"1";"FINISHED";"RIGHT";"success";"363";"0";"2014-08-06 11:24:05.678";"3";;;;;;;;;;;;;;;;;;;;;;;;;;;;;;;;;;;;;;;;;;;;;;;;;;;;;;;;;
"!(km*(";"1989";;"Windows 7";"Rachel's Experiment (SCIAT)";"1.0";"1";"1";"1";"1";"1";"1";"2014-08-06 11:20:40.289";"2014-08-06 11:30:44.971";"1";"1";"1";"1";"0";"22";"21";"module.training_block1.exec-6717.GoNoGo1";"1250";"2014-08-06 11:24:09.480";"NST_correctLoc";"26";"0";"FINISHED";"LEFT";"success";"323";"0";"2014-08-06 11:24:08.230";"3";;;;;;;;;;;;;;;;;;;;;;;;;;;;;;;;;;;;;;;;;;;;;;;;;;;;;;;;;
"!(km*(";"1989";;"Windows 7";"Rachel's Experiment (SCIAT)";"1.0";"1";"1";"1";"1";"1";"1";"2014-08-06 11:20:40.289";"2014-08-06 11:30:44.971";"1";"1";"1";"1";"0";"23";"22";"module.training_block1.exec-6717.GoNoGo1";"1250";"2014-08-06 11:24:12.042";"NST_correctLoc";"10";"0";"FINISHED";"LEFT";"success";"331";"0";"2014-08-06 11:24:10.791";"2";;;;;;;;;;;;;;;;;;;;;;;;;;;;;;;;;;;;;;;;;;;;;;;;;;;;;;;;;
"!(km*(";"1989";;"Windows 7";"Rachel's Experiment (SCIAT)";"1.0";"1";"1";"1";"1";"1";"1";"2014-08-06 11:20:40.289";"2014-08-06 11:30:44.971";"1";"1";"1";"1";"0";"24";"23";"module.training_block1.exec-6717.GoNoGo1";"1249";"2014-08-06 11:24:14.606";"NST_correctLoc";"12";"1";"FINISHED";"RIGHT";"success";"369";"0";"2014-08-06 11:24:13.356";"2";;;;;;;;;;;;;;;;;;;;;;;;;;;;;;;;;;;;;;;;;;;;;;;;;;;;;;;;;
"!(km*(";"1989";;"Windows 7";"Rachel's Experiment (SCIAT)";"1.0";"1";"1";"1";"1";"1";"1";"2014-08-06 11:20:40.289";"2014-08-06 11:30:44.971";"1";"1";"1";"1";"0";"25";"24";"module.training_block1.exec-6717.GoNoGo1";"1249";"2014-08-06 11:24:17.158";"NST_correctLoc";"3";"0";"FINISHED";"LEFT";"success";"295";"0";"2014-08-06 11:24:15.908";"1";;;;;;;;;;;;;;;;;;;;;;;;;;;;;;;;;;;;;;;;;;;;;;;;;;;;;;;;;
"!(km*(";"1989";;"Windows 7";"Rachel's Experiment (SCIAT)";"1.0";"1";"1";"1";"1";"1";"1";"2014-08-06 11:20:40.289";"2014-08-06 11:30:44.971";"1";"1";"1";"1";"0";"26";"25";"module.training_block1.exec-6717.GoNoGo1";"1250";"2014-08-06 11:24:19.709";"NST_correctLoc";"34";"0";"FINISHED";"LEFT";"success";"322";"0";"2014-08-06 11:24:18.459";"3";;;;;;;;;;;;;;;;;;;;;;;;;;;;;;;;;;;;;;;;;;;;;;;;;;;;;;;;;
"!(km*(";"1989";;"Windows 7";"Rachel's Experiment (SCIAT)";"1.0";"1";"1";"1";"1";"1";"1";"2014-08-06 11:20:40.289";"2014-08-06 11:30:44.971";"1";"1";"1";"1";"0";"27";"26";"module.training_block1.exec-6717.GoNoGo1";"1249";"2014-08-06 11:24:22.258";"NST_correctLoc";"23";"0";"FINISHED";"LEFT";"success";"330";"0";"2014-08-06 11:24:21.008";"3";;;;;;;;;;;;;;;;;;;;;;;;;;;;;;;;;;;;;;;;;;;;;;;;;;;;;;;;;
"!(km*(";"1989";;"Windows 7";"Rachel's Experiment (SCIAT)";"1.0";"1";"1";"1";"1";"1";"1";"2014-08-06 11:20:40.289";"2014-08-06 11:30:44.971";"1";"1";"1";"1";"0";"28";"27";"module.training_block1.exec-6717.GoNoGo1";"1249";"2014-08-06 11:24:24.824";"NST_correctLoc";"28";"1";"FINISHED";"RIGHT";"success";"322";"0";"2014-08-06 11:24:23.574";"3";;;;;;;;;;;;;;;;;;;;;;;;;;;;;;;;;;;;;;;;;;;;;;;;;;;;;;;;;
"!(km*(";"1989";;"Windows 7";"Rachel's Experiment (SCIAT)";"1.0";"1";"1";"1";"1";"1";"1";"2014-08-06 11:20:40.289";"2014-08-06 11:30:44.971";"1";"1";"1";"1";"0";"29";"28";"module.training_block1.exec-6717.GoNoGo1";"1249";"2014-08-06 11:24:27.397";"NST_correctLoc";"7";"0";"FINISHED";"LEFT";"success";"334";"0";"2014-08-06 11:24:26.147";"1";;;;;;;;;;;;;;;;;;;;;;;;;;;;;;;;;;;;;;;;;;;;;;;;;;;;;;;;;
"!(km*(";"1989";;"Windows 7";"Rachel's Experiment (SCIAT)";"1.0";"1";"1";"1";"1";"1";"1";"2014-08-06 11:20:40.289";"2014-08-06 11:30:44.971";"1";"1";"1";"1";"0";"30";"29";"module.training_block1.exec-6717.GoNoGo1";"1250";"2014-08-06 11:24:29.943";"NST_correctLoc";"17";"1";"FINISHED";"RIGHT";"success";"335";"0";"2014-08-06 11:24:28.693";"2";;;;;;;;;;;;;;;;;;;;;;;;;;;;;;;;;;;;;;;;;;;;;;;;;;;;;;;;;
"!(km*(";"1989";;"Windows 7";"Rachel's Experiment (SCIAT)";"1.0";"1";"1";"1";"1";"1";"1";"2014-08-06 11:20:40.289";"2014-08-06 11:30:44.971";"1";"1";"1";"1";"0";"31";"30";"module.training_block1.exec-6717.GoNoGo1";"1249";"2014-08-06 11:24:32.514";"NST_correctLoc";"29";"1";"FINISHED";"RIGHT";"success";"350";"0";"2014-08-06 11:24:31.264";"3";;;;;;;;;;;;;;;;;;;;;;;;;;;;;;;;;;;;;;;;;;;;;;;;;;;;;;;;;
"!(km*(";"1989";;"Windows 7";"Rachel's Experiment (SCIAT)";"1.0";"1";"1";"1";"1";"1";"1";"2014-08-06 11:20:40.289";"2014-08-06 11:30:44.971";"1";"1";"1";"1";"0";"32";"31";"module.training_block1.exec-6717.GoNoGo1";"1250";"2014-08-06 11:24:35.061";"NST_correctLoc";"22";"1";"FINISHED";"RIGHT";"success";"353";"0";"2014-08-06 11:24:33.811";"3";;;;;;;;;;;;;;;;;;;;;;;;;;;;;;;;;;;;;;;;;;;;;;;;;;;;;;;;;
"!(km*(";"1989";;"Windows 7";"Rachel's Experiment (SCIAT)";"1.0";"1";"1";"1";"1";"1";"1";"2014-08-06 11:20:40.289";"2014-08-06 11:30:44.971";"1";"1";"1";"1";"0";"33";"32";"module.training_block1.exec-6717.GoNoGo1";"1249";"2014-08-06 11:24:37.626";"NST_correctLoc";"21";"0";"FINISHED";"LEFT";"success";"319";"0";"2014-08-06 11:24:36.376";"3";;;;;;;;;;;;;;;;;;;;;;;;;;;;;;;;;;;;;;;;;;;;;;;;;;;;;;;;;
"!(km*(";"1989";;"Windows 7";"Rachel's Experiment (SCIAT)";"1.0";"1";"1";"1";"1";"1";"1";"2014-08-06 11:20:40.289";"2014-08-06 11:30:44.971";"1";"1";"1";"1";"0";"34";"33";"module.training_block1.exec-6717.GoNoGo1";"1249";"2014-08-06 11:24:40.186";"NST_correctLoc";"33";"1";"FINISHED";"RIGHT";"success";"486";"0";"2014-08-06 11:24:38.936";"3";;;;;;;;;;;;;;;;;;;;;;;;;;;;;;;;;;;;;;;;;;;;;;;;;;;;;;;;;
"!(km*(";"1989";;"Windows 7";"Rachel's Experiment (SCIAT)";"1.0";"1";"1";"1";"1";"1";"1";"2014-08-06 11:20:40.289";"2014-08-06 11:30:44.971";"1";"1";"1";"1";"0";"35";"34";"module.training_block1.exec-6717.GoNoGo1";"1249";"2014-08-06 11:24:42.736";"NST_correctLoc";"2";"1";"FINISHED";"RIGHT";"success";"495";"0";"2014-08-06 11:24:41.486";"1";;;;;;;;;;;;;;;;;;;;;;;;;;;;;;;;;;;;;;;;;;;;;;;;;;;;;;;;;
"!(km*(";"1989";;"Windows 7";"Rachel's Experiment (SCIAT)";"1.0";"1";"1";"1";"1";"1";"1";"2014-08-06 11:20:40.289";"2014-08-06 11:30:44.971";"1";"1";"1";"1";"0";"36";"35";"module.training_block1.exec-6717.GoNoGo1";"1249";"2014-08-06 11:24:45.305";"NST_correctLoc";"4";"1";"FINISHED";"RIGHT";"success";"328";"0";"2014-08-06 11:24:44.055";"1";;;;;;;;;;;;;;;;;;;;;;;;;;;;;;;;;;;;;;;;;;;;;;;;;;;;;;;;;
"!(km*(";"1989";;"Windows 7";"Rachel's Experiment (SCIAT)";"1.0";"1";"1";"1";"1";"1";"1";"2014-08-06 11:20:40.289";"2014-08-06 11:30:44.971";"1";"1";"1";"1";"0";"37";"36";"module.training_block1.exec-6717.GoNoGo1";"1250";"2014-08-06 11:24:47.850";"NST_correctLoc";"13";"1";"FINISHED";"RIGHT";"success";"376";"0";"2014-08-06 11:24:46.600";"2";;;;;;;;;;;;;;;;;;;;;;;;;;;;;;;;;;;;;;;;;;;;;;;;;;;;;;;;;
"!(km*(";"1989";;"Windows 7";"Rachel's Experiment (SCIAT)";"1.0";"1";"1";"1";"1";"1";"1";"2014-08-06 11:20:40.289";"2014-08-06 11:30:44.971";"1";"1";"1";"1";"0";"38";"37";"module.training_block1.exec-6717.GoNoGo1";"1249";"2014-08-06 11:24:50.396";"NST_correctLoc";"14";"1";"FINISHED";"RIGHT";"success";"344";"0";"2014-08-06 11:24:49.146";"2";;;;;;;;;;;;;;;;;;;;;;;;;;;;;;;;;;;;;;;;;;;;;;;;;;;;;;;;;
"!(km*(";"1989";;"Windows 7";"Rachel's Experiment (SCIAT)";"1.0";"1";"1";"1";"1";"1";"1";"2014-08-06 11:20:40.289";"2014-08-06 11:30:44.971";"1";"1";"1";"1";"0";"39";"38";"module.training_block1.exec-6717.GoNoGo1";"1249";"2014-08-06 11:24:52.960";"NST_correctLoc";"8";"1";"FINISHED";"RIGHT";"success";"421";"0";"2014-08-06 11:24:51.710";"1";;;;;;;;;;;;;;;;;;;;;;;;;;;;;;;;;;;;;;;;;;;;;;;;;;;;;;;;;
"!(km*(";"1989";;"Windows 7";"Rachel's Experiment (SCIAT)";"1.0";"1";"1";"1";"1";"1";"1";"2014-08-06 11:20:40.289";"2014-08-06 11:30:44.971";"1";"1";"1";"1";"0";"40";"39";"module.training_block1.exec-6717.GoNoGo1";"1249";"2014-08-06 11:24:55.506";"NST_correctLoc";"27";"0";"FINISHED";"LEFT";"success";"342";"0";"2014-08-06 11:24:54.256";"3";;;;;;;;;;;;;;;;;;;;;;;;;;;;;;;;;;;;;;;;;;;;;;;;;;;;;;;;;
"!(km*(";"1989";;"Windows 7";"Rachel's Experiment (SCIAT)";"1.0";"1";"1";"1";"1";"1";"1";"2014-08-06 11:20:40.289";"2014-08-06 11:30:44.971";"1";"1";"1";"1";"0";"41";"40";"module.training_block1.exec-6717.GoNoGo1";"1250";"2014-08-06 11:24:58.067";"NST_correctLoc";"25";"0";"FINISHED";"LEFT";"success";"382";"0";"2014-08-06 11:24:56.817";"3";;;;;;;;;;;;;;;;;;;;;;;;;;;;;;;;;;;;;;;;;;;;;;;;;;;;;;;;;
"!(km*(";"1989";;"Windows 7";"Rachel's Experiment (SCIAT)";"1.0";"1";"1";"1";"1";"1";"1";"2014-08-06 11:20:40.289";"2014-08-06 11:30:44.971";"1";"1";"1";"1";"0";"42";"41";"module.training_block1.exec-6717.GoNoGo1";"1250";"2014-08-06 11:25:00.618";"NST_correctLoc";"20";"1";"FINISHED";"RIGHT";"success";"360";"0";"2014-08-06 11:24:59.368";"3";;;;;;;;;;;;;;;;;;;;;;;;;;;;;;;;;;;;;;;;;;;;;;;;;;;;;;;;;
"!(km*(";"1989";;"Windows 7";"Rachel's Experiment (SCIAT)";"1.0";"1";"1";"1";"1";"1";"1";"2014-08-06 11:20:40.289";"2014-08-06 11:30:44.971";"1";"1";"1";"1";"0";"43";"42";"module.training_block1.exec-6717.GoNoGo1";"1250";"2014-08-06 11:25:03.180";"NST_correctLoc";"1";"0";"FINISHED";"LEFT";"success";"335";"0";"2014-08-06 11:25:01.930";"1";;;;;;;;;;;;;;;;;;;;;;;;;;;;;;;;;;;;;;;;;;;;;;;;;;;;;;;;;
"!(km*(";"1989";;"Windows 7";"Rachel's Experiment (SCIAT)";"1.0";"1";"1";"1";"1";"1";"1";"2014-08-06 11:20:40.289";"2014-08-06 11:30:44.971";"1";"1";"1";"1";"0";"44";"43";"module.training_block1.exec-6717.GoNoGo1";"1249";"2014-08-06 11:25:05.731";"NST_correctLoc";"32";"1";"FINISHED";"RIGHT";"success";"365";"0";"2014-08-06 11:25:04.481";"3";;;;;;;;;;;;;;;;;;;;;;;;;;;;;;;;;;;;;;;;;;;;;;;;;;;;;;;;;
"!(km*(";"1989";;"Windows 7";"Rachel's Experiment (SCIAT)";"1.0";"1";"1";"1";"1";"1";"1";"2014-08-06 11:20:40.289";"2014-08-06 11:30:44.971";"1";"1";"1";"1";"0";"45";"44";"module.training_block1.exec-6717.GoNoGo1";"1250";"2014-08-06 11:25:08.381";"NST_correctLoc";"30";"0";"FINISHED";"LEFT";"success";"334";"0";"2014-08-06 11:25:07.131";"3";;;;;;;;;;;;;;;;;;;;;;;;;;;;;;;;;;;;;;;;;;;;;;;;;;;;;;;;;
"!(km*(";"1989";;"Windows 7";"Rachel's Experiment (SCIAT)";"1.0";"1";"1";"1";"1";"1";"1";"2014-08-06 11:20:40.289";"2014-08-06 11:30:44.971";"1";"1";"1";"1";"0";"46";"45";"module.training_block1.exec-6717.GoNoGo1";"1249";"2014-08-06 11:25:10.941";"NST_correctLoc";"16";"0";"FINISHED";"LEFT";"success";"372";"0";"2014-08-06 11:25:09.691";"2";;;;;;;;;;;;;;;;;;;;;;;;;;;;;;;;;;;;;;;;;;;;;;;;;;;;;;;;;
"!(km*(";"1989";;"Windows 7";"Rachel's Experiment (SCIAT)";"1.0";"1";"1";"1";"1";"1";"1";"2014-08-06 11:20:40.289";"2014-08-06 11:30:44.971";"1";"1";"1";"1";"0";"47";"46";"module.training_block1.exec-6717.GoNoGo1";"1249";"2014-08-06 11:25:13.497";"NST_correctLoc";"5";"0";"FINISHED";"LEFT";"success";"395";"0";"2014-08-06 11:25:12.247";"1";;;;;;;;;;;;;;;;;;;;;;;;;;;;;;;;;;;;;;;;;;;;;;;;;;;;;;;;;
"!(km*(";"1989";;"Windows 7";"Rachel's Experiment (SCIAT)";"1.0";"1";"1";"1";"1";"1";"1";"2014-08-06 11:20:40.289";"2014-08-06 11:30:44.971";"1";"1";"1";"1";"0";"48";"47";"module.training_block1.exec-6717.GoNoGo1";"1249";"2014-08-06 11:25:16.049";"NST_correctLoc";"15";"0";"FINISHED";"LEFT";"success";"365";"0";"2014-08-06 11:25:14.799";"2";;;;;;;;;;;;;;;;;;;;;;;;;;;;;;;;;;;;;;;;;;;;;;;;;;;;;;;;;
"!(km*(";"1989";;"Windows 7";"Rachel's Experiment (SCIAT)";"1.0";"1";"1";"1";"1";"1";"1";"2014-08-06 11:20:40.289";"2014-08-06 11:30:44.971";"1";"1";"1";"1";"0";"49";"48";"module.training_block1.exec-6717.GoNoGo1";"1249";"2014-08-06 11:25:18.593";"NST_correctLoc";"6";"0";"FINISHED";"LEFT";"success";"365";"0";"2014-08-06 11:25:17.343";"1";;;;;;;;;;;;;;;;;;;;;;;;;;;;;;;;;;;;;;;;;;;;;;;;;;;;;;;;;
"!(km*(";"1989";;"Windows 7";"Rachel's Experiment (SCIAT)";"1.0";"1";"1";"1";"1";"1";"1";"2014-08-06 11:20:40.289";"2014-08-06 11:30:44.971";"1";"1";"1";"1";"0";"50";"49";"module.training_block1.exec-6717.GoNoGo1";"1249";"2014-08-06 11:25:21.153";"NST_correctLoc";"0";"0";"FINISHED";"LEFT";"success";"433";"0";"2014-08-06 11:25:19.902";"1";;;;;;;;;;;;;;;;;;;;;;;;;;;;;;;;;;;;;;;;;;;;;;;;;;;;;;;;;
"!(km*(";"1989";;"Windows 7";"Rachel's Experiment (SCIAT)";"1.0";"1";"1";"1";"1";"1";"1";"2014-08-06 11:20:40.289";"2014-08-06 11:30:44.971";"1";"1";"1";"1";"0";"51";"50";"module.training_block1.exec-6717.GoNoGo1";"1250";"2014-08-06 11:25:23.703";"NST_correctLoc";"9";"1";"FINISHED";"RIGHT";"success";"390";"0";"2014-08-06 11:25:22.453";"2";;;;;;;;;;;;;;;;;;;;;;;;;;;;;;;;;;;;;;;;;;;;;;;;;;;;;;;;;
"!(km*(";"1989";;"Windows 7";"Rachel's Experiment (SCIAT)";"1.0";"1";"1";"1";"1";"1";"1";"2014-08-06 11:20:40.289";"2014-08-06 11:30:44.971";"1";"1";"1";"1";"0";"52";"51";"module.training_block2.exec-4347.GoNoGo2";;;;;;;;;;;;;"1249";"2014-08-06 11:25:34.883";"NST_correctLoc";"9";"1";"FINISHED";"RIGHT";"success";"410";"0";"2014-08-06 11:25:33.633";"2";;;;;;;;;;;;;;;;;;;;;;;;;;;;;;;;;;;;;;;;;;;;;
"!(km*(";"1989";;"Windows 7";"Rachel's Experiment (SCIAT)";"1.0";"1";"1";"1";"1";"1";"1";"2014-08-06 11:20:40.289";"2014-08-06 11:30:44.971";"1";"1";"1";"1";"0";"53";"52";"module.training_block2.exec-4347.GoNoGo2";;;;;;;;;;;;;"1249";"2014-08-06 11:25:37.428";"NST_correctLoc";"14";"1";"FINISHED";"RIGHT";"success";"353";"0";"2014-08-06 11:25:36.178";"2";;;;;;;;;;;;;;;;;;;;;;;;;;;;;;;;;;;;;;;;;;;;;
"!(km*(";"1989";;"Windows 7";"Rachel's Experiment (SCIAT)";"1.0";"1";"1";"1";"1";"1";"1";"2014-08-06 11:20:40.289";"2014-08-06 11:30:44.971";"1";"1";"1";"1";"0";"54";"53";"module.training_block2.exec-4347.GoNoGo2";;;;;;;;;;;;;"1249";"2014-08-06 11:25:39.982";"NST_correctLoc";"34";"0";"FINISHED";"LEFT";"success";"303";"0";"2014-08-06 11:25:38.732";"3";;;;;;;;;;;;;;;;;;;;;;;;;;;;;;;;;;;;;;;;;;;;;
"!(km*(";"1989";;"Windows 7";"Rachel's Experiment (SCIAT)";"1.0";"1";"1";"1";"1";"1";"1";"2014-08-06 11:20:40.289";"2014-08-06 11:30:44.971";"1";"1";"1";"1";"0";"55";"54";"module.training_block2.exec-4347.GoNoGo2";;;;;;;;;;;;;"1249";"2014-08-06 11:25:42.527";"NST_correctLoc";"20";"1";"FINISHED";"RIGHT";"success";"362";"0";"2014-08-06 11:25:41.277";"3";;;;;;;;;;;;;;;;;;;;;;;;;;;;;;;;;;;;;;;;;;;;;
"!(km*(";"1989";;"Windows 7";"Rachel's Experiment (SCIAT)";"1.0";"1";"1";"1";"1";"1";"1";"2014-08-06 11:20:40.289";"2014-08-06 11:30:44.971";"1";"1";"1";"1";"0";"56";"55";"module.training_block2.exec-4347.GoNoGo2";;;;;;;;;;;;;"1249";"2014-08-06 11:25:45.056";"NST_correctLoc";"29";"0";"FINISHED";"LEFT";"success";"323";"0";"2014-08-06 11:25:43.806";"3";;;;;;;;;;;;;;;;;;;;;;;;;;;;;;;;;;;;;;;;;;;;;
"!(km*(";"1989";;"Windows 7";"Rachel's Experiment (SCIAT)";"1.0";"1";"1";"1";"1";"1";"1";"2014-08-06 11:20:40.289";"2014-08-06 11:30:44.971";"1";"1";"1";"1";"0";"57";"56";"module.training_block2.exec-4347.GoNoGo2";;;;;;;;;;;;;"1249";"2014-08-06 11:25:47.598";"NST_correctLoc";"28";"1";"FINISHED";"RIGHT";"success";"339";"0";"2014-08-06 11:25:46.348";"3";;;;;;;;;;;;;;;;;;;;;;;;;;;;;;;;;;;;;;;;;;;;;
"!(km*(";"1989";;"Windows 7";"Rachel's Experiment (SCIAT)";"1.0";"1";"1";"1";"1";"1";"1";"2014-08-06 11:20:40.289";"2014-08-06 11:30:44.971";"1";"1";"1";"1";"0";"58";"57";"module.training_block2.exec-4347.GoNoGo2";;;;;;;;;;;;;"1249";"2014-08-06 11:25:50.132";"NST_correctLoc";"35";"0";"FINISHED";"LEFT";"success";"365";"0";"2014-08-06 11:25:48.882";"3";;;;;;;;;;;;;;;;;;;;;;;;;;;;;;;;;;;;;;;;;;;;;
"!(km*(";"1989";;"Windows 7";"Rachel's Experiment (SCIAT)";"1.0";"1";"1";"1";"1";"1";"1";"2014-08-06 11:20:40.289";"2014-08-06 11:30:44.971";"1";"1";"1";"1";"0";"59";"58";"module.training_block2.exec-4347.GoNoGo2";;;;;;;;;;;;;"1250";"2014-08-06 11:25:52.674";"NST_correctLoc";"21";"1";"FINISHED";"RIGHT";"success";"335";"0";"2014-08-06 11:25:51.424";"3";;;;;;;;;;;;;;;;;;;;;;;;;;;;;;;;;;;;;;;;;;;;;
"!(km*(";"1989";;"Windows 7";"Rachel's Experiment (SCIAT)";"1.0";"1";"1";"1";"1";"1";"1";"2014-08-06 11:20:40.289";"2014-08-06 11:30:44.971";"1";"1";"1";"1";"0";"60";"59";"module.training_block2.exec-4347.GoNoGo2";;;;;;;;;;;;;"1249";"2014-08-06 11:25:55.209";"NST_correctLoc";"0";"0";"FINISHED";"LEFT";"success";"333";"0";"2014-08-06 11:25:53.959";"1";;;;;;;;;;;;;;;;;;;;;;;;;;;;;;;;;;;;;;;;;;;;;
"!(km*(";"1989";;"Windows 7";"Rachel's Experiment (SCIAT)";"1.0";"1";"1";"1";"1";"1";"1";"2014-08-06 11:20:40.289";"2014-08-06 11:30:44.971";"1";"1";"1";"1";"0";"61";"60";"module.training_block2.exec-4347.GoNoGo2";;;;;;;;;;;;;"1249";"2014-08-06 11:25:57.753";"NST_correctLoc";"33";"0";"FINISHED";"LEFT";"success";"376";"0";"2014-08-06 11:25:56.503";"3";;;;;;;;;;;;;;;;;;;;;;;;;;;;;;;;;;;;;;;;;;;;;
"!(km*(";"1989";;"Windows 7";"Rachel's Experiment (SCIAT)";"1.0";"1";"1";"1";"1";"1";"1";"2014-08-06 11:20:40.289";"2014-08-06 11:30:44.971";"1";"1";"1";"1";"0";"62";"61";"module.training_block2.exec-4347.GoNoGo2";;;;;;;;;;;;;"1249";"2014-08-06 11:26:00.294";"NST_correctLoc";"8";"1";"FINISHED";"RIGHT";"success";"378";"0";"2014-08-06 11:25:59.044";"1";;;;;;;;;;;;;;;;;;;;;;;;;;;;;;;;;;;;;;;;;;;;;
"!(km*(";"1989";;"Windows 7";"Rachel's Experiment (SCIAT)";"1.0";"1";"1";"1";"1";"1";"1";"2014-08-06 11:20:40.289";"2014-08-06 11:30:44.971";"1";"1";"1";"1";"0";"63";"62";"module.training_block2.exec-4347.GoNoGo2";;;;;;;;;;;;;"1250";"2014-08-06 11:26:02.835";"NST_correctLoc";"27";"0";"FINISHED";"LEFT";"success";"444";"0";"2014-08-06 11:26:01.585";"3";;;;;;;;;;;;;;;;;;;;;;;;;;;;;;;;;;;;;;;;;;;;;
"!(km*(";"1989";;"Windows 7";"Rachel's Experiment (SCIAT)";"1.0";"1";"1";"1";"1";"1";"1";"2014-08-06 11:20:40.289";"2014-08-06 11:30:44.971";"1";"1";"1";"1";"0";"64";"63";"module.training_block2.exec-4347.GoNoGo2";;;;;;;;;;;;;"1249";"2014-08-06 11:26:05.372";"NST_correctLoc";"4";"0";"FINISHED";"LEFT";"success";"416";"0";"2014-08-06 11:26:04.122";"1";;;;;;;;;;;;;;;;;;;;;;;;;;;;;;;;;;;;;;;;;;;;;
"!(km*(";"1989";;"Windows 7";"Rachel's Experiment (SCIAT)";"1.0";"1";"1";"1";"1";"1";"1";"2014-08-06 11:20:40.289";"2014-08-06 11:30:44.971";"1";"1";"1";"1";"0";"65";"64";"module.training_block2.exec-4347.GoNoGo2";;;;;;;;;;;;;"1249";"2014-08-06 11:26:07.912";"NST_correctLoc";"13";"1";"FINISHED";"RIGHT";"success";"521";"0";"2014-08-06 11:26:06.662";"2";;;;;;;;;;;;;;;;;;;;;;;;;;;;;;;;;;;;;;;;;;;;;
"!(km*(";"1989";;"Windows 7";"Rachel's Experiment (SCIAT)";"1.0";"1";"1";"1";"1";"1";"1";"2014-08-06 11:20:40.289";"2014-08-06 11:30:44.971";"1";"1";"1";"1";"0";"66";"65";"module.training_block2.exec-4347.GoNoGo2";;;;;;;;;;;;;"1249";"2014-08-06 11:26:10.553";"NST_correctLoc";"17";"0";"FINISHED";"LEFT";"success";"373";"0";"2014-08-06 11:26:09.303";"2";;;;;;;;;;;;;;;;;;;;;;;;;;;;;;;;;;;;;;;;;;;;;
"!(km*(";"1989";;"Windows 7";"Rachel's Experiment (SCIAT)";"1.0";"1";"1";"1";"1";"1";"1";"2014-08-06 11:20:40.289";"2014-08-06 11:30:44.971";"1";"1";"1";"1";"0";"67";"66";"module.training_block2.exec-4347.GoNoGo2";;;;;;;;;;;;;"1249";"2014-08-06 11:26:13.092";"NST_correctLoc";"5";"1";"FINISHED";"RIGHT";"success";"357";"0";"2014-08-06 11:26:11.842";"1";;;;;;;;;;;;;;;;;;;;;;;;;;;;;;;;;;;;;;;;;;;;;
"!(km*(";"1989";;"Windows 7";"Rachel's Experiment (SCIAT)";"1.0";"1";"1";"1";"1";"1";"1";"2014-08-06 11:20:40.289";"2014-08-06 11:30:44.971";"1";"1";"1";"1";"0";"68";"67";"module.training_block2.exec-4347.GoNoGo2";;;;;;;;;;;;;"1249";"2014-08-06 11:26:15.634";"NST_correctLoc";"12";"0";"FINISHED";"LEFT";"success";"359";"0";"2014-08-06 11:26:14.384";"2";;;;;;;;;;;;;;;;;;;;;;;;;;;;;;;;;;;;;;;;;;;;;
"!(km*(";"1989";;"Windows 7";"Rachel's Experiment (SCIAT)";"1.0";"1";"1";"1";"1";"1";"1";"2014-08-06 11:20:40.289";"2014-08-06 11:30:44.971";"1";"1";"1";"1";"0";"69";"68";"module.training_block2.exec-4347.GoNoGo2";;;;;;;;;;;;;"1249";"2014-08-06 11:26:18.173";"NST_correctLoc";"22";"0";"FINISHED";"LEFT";"success";"334";"0";"2014-08-06 11:26:16.923";"3";;;;;;;;;;;;;;;;;;;;;;;;;;;;;;;;;;;;;;;;;;;;;
"!(km*(";"1989";;"Windows 7";"Rachel's Experiment (SCIAT)";"1.0";"1";"1";"1";"1";"1";"1";"2014-08-06 11:20:40.289";"2014-08-06 11:30:44.971";"1";"1";"1";"1";"0";"70";"69";"module.training_block2.exec-4347.GoNoGo2";;;;;;;;;;;;;"1249";"2014-08-06 11:26:20.711";"NST_correctLoc";"32";"1";"FINISHED";"RIGHT";"success";"379";"0";"2014-08-06 11:26:19.461";"3";;;;;;;;;;;;;;;;;;;;;;;;;;;;;;;;;;;;;;;;;;;;;
"!(km*(";"1989";;"Windows 7";"Rachel's Experiment (SCIAT)";"1.0";"1";"1";"1";"1";"1";"1";"2014-08-06 11:20:40.289";"2014-08-06 11:30:44.971";"1";"1";"1";"1";"0";"71";"70";"module.training_block2.exec-4347.GoNoGo2";;;;;;;;;;;;;"1249";"2014-08-06 11:26:23.235";"NST_correctLoc";"10";"0";"FINISHED";"LEFT";"success";"330";"0";"2014-08-06 11:26:21.985";"2";;;;;;;;;;;;;;;;;;;;;;;;;;;;;;;;;;;;;;;;;;;;;
"!(km*(";"1989";;"Windows 7";"Rachel's Experiment (SCIAT)";"1.0";"1";"1";"1";"1";"1";"1";"2014-08-06 11:20:40.289";"2014-08-06 11:30:44.971";"1";"1";"1";"1";"0";"72";"71";"module.training_block2.exec-4347.GoNoGo2";;;;;;;;;;;;;"1249";"2014-08-06 11:26:25.771";"NST_correctLoc";"31";"1";"FINISHED";"RIGHT";"success";"336";"0";"2014-08-06 11:26:24.521";"3";;;;;;;;;;;;;;;;;;;;;;;;;;;;;;;;;;;;;;;;;;;;;
"!(km*(";"1989";;"Windows 7";"Rachel's Experiment (SCIAT)";"1.0";"1";"1";"1";"1";"1";"1";"2014-08-06 11:20:40.289";"2014-08-06 11:30:44.971";"1";"1";"1";"1";"0";"73";"72";"module.training_block2.exec-4347.GoNoGo2";;;;;;;;;;;;;"1249";"2014-08-06 11:26:28.309";"NST_correctLoc";"15";"1";"FINISHED";"RIGHT";"success";"411";"0";"2014-08-06 11:26:27.059";"2";;;;;;;;;;;;;;;;;;;;;;;;;;;;;;;;;;;;;;;;;;;;;
"!(km*(";"1989";;"Windows 7";"Rachel's Experiment (SCIAT)";"1.0";"1";"1";"1";"1";"1";"1";"2014-08-06 11:20:40.289";"2014-08-06 11:30:44.971";"1";"1";"1";"1";"0";"74";"73";"module.training_block2.exec-4347.GoNoGo2";;;;;;;;;;;;;"1250";"2014-08-06 11:26:30.850";"NST_correctLoc";"26";"0";"FINISHED";"LEFT";"success";"330";"0";"2014-08-06 11:26:29.599";"3";;;;;;;;;;;;;;;;;;;;;;;;;;;;;;;;;;;;;;;;;;;;;
"!(km*(";"1989";;"Windows 7";"Rachel's Experiment (SCIAT)";"1.0";"1";"1";"1";"1";"1";"1";"2014-08-06 11:20:40.289";"2014-08-06 11:30:44.971";"1";"1";"1";"1";"0";"75";"74";"module.training_block2.exec-4347.GoNoGo2";;;;;;;;;;;;;"1250";"2014-08-06 11:26:33.370";"NST_correctLoc";"16";"0";"FINISHED";"LEFT";"success";"425";"0";"2014-08-06 11:26:32.120";"2";;;;;;;;;;;;;;;;;;;;;;;;;;;;;;;;;;;;;;;;;;;;;
"!(km*(";"1989";;"Windows 7";"Rachel's Experiment (SCIAT)";"1.0";"1";"1";"1";"1";"1";"1";"2014-08-06 11:20:40.289";"2014-08-06 11:30:44.971";"1";"1";"1";"1";"0";"76";"75";"module.training_block2.exec-4347.GoNoGo2";;;;;;;;;;;;;"1249";"2014-08-06 11:26:35.906";"NST_correctLoc";"6";"1";"FINISHED";"RIGHT";"success";"420";"0";"2014-08-06 11:26:34.656";"1";;;;;;;;;;;;;;;;;;;;;;;;;;;;;;;;;;;;;;;;;;;;;
"!(km*(";"1989";;"Windows 7";"Rachel's Experiment (SCIAT)";"1.0";"1";"1";"1";"1";"1";"1";"2014-08-06 11:20:40.289";"2014-08-06 11:30:44.971";"1";"1";"1";"1";"0";"77";"76";"module.training_block2.exec-4347.GoNoGo2";;;;;;;;;;;;;"1249";"2014-08-06 11:26:38.444";"NST_correctLoc";"7";"1";"FINISHED";"RIGHT";"success";"331";"0";"2014-08-06 11:26:37.194";"1";;;;;;;;;;;;;;;;;;;;;;;;;;;;;;;;;;;;;;;;;;;;;
"!(km*(";"1989";;"Windows 7";"Rachel's Experiment (SCIAT)";"1.0";"1";"1";"1";"1";"1";"1";"2014-08-06 11:20:40.289";"2014-08-06 11:30:44.971";"1";"1";"1";"1";"0";"78";"77";"module.training_block2.exec-4347.GoNoGo2";;;;;;;;;;;;;"1249";"2014-08-06 11:26:40.979";"NST_correctLoc";"30";"1";"FINISHED";"RIGHT";"success";"381";"0";"2014-08-06 11:26:39.729";"3";;;;;;;;;;;;;;;;;;;;;;;;;;;;;;;;;;;;;;;;;;;;;
"!(km*(";"1989";;"Windows 7";"Rachel's Experiment (SCIAT)";"1.0";"1";"1";"1";"1";"1";"1";"2014-08-06 11:20:40.289";"2014-08-06 11:30:44.971";"1";"1";"1";"1";"0";"79";"78";"module.training_block2.exec-4347.GoNoGo2";;;;;;;;;;;;;"1249";"2014-08-06 11:26:43.508";"NST_correctLoc";"3";"1";"FINISHED";"RIGHT";"success";"344";"0";"2014-08-06 11:26:42.258";"1";;;;;;;;;;;;;;;;;;;;;;;;;;;;;;;;;;;;;;;;;;;;;
"!(km*(";"1989";;"Windows 7";"Rachel's Experiment (SCIAT)";"1.0";"1";"1";"1";"1";"1";"1";"2014-08-06 11:20:40.289";"2014-08-06 11:30:44.971";"1";"1";"1";"1";"0";"80";"79";"module.training_block2.exec-4347.GoNoGo2";;;;;;;;;;;;;"1249";"2014-08-06 11:26:46.047";"NST_correctLoc";"24";"1";"FINISHED";"RIGHT";"success";"378";"0";"2014-08-06 11:26:44.797";"3";;;;;;;;;;;;;;;;;;;;;;;;;;;;;;;;;;;;;;;;;;;;;
"!(km*(";"1989";;"Windows 7";"Rachel's Experiment (SCIAT)";"1.0";"1";"1";"1";"1";"1";"1";"2014-08-06 11:20:40.289";"2014-08-06 11:30:44.971";"1";"1";"1";"1";"0";"81";"80";"module.training_block2.exec-4347.GoNoGo2";;;;;;;;;;;;;"1250";"2014-08-06 11:26:48.582";"NST_correctLoc";"2";"0";"FINISHED";"LEFT";"success";"296";"0";"2014-08-06 11:26:47.331";"1";;;;;;;;;;;;;;;;;;;;;;;;;;;;;;;;;;;;;;;;;;;;;
"!(km*(";"1989";;"Windows 7";"Rachel's Experiment (SCIAT)";"1.0";"1";"1";"1";"1";"1";"1";"2014-08-06 11:20:40.289";"2014-08-06 11:30:44.971";"1";"1";"1";"1";"0";"82";"81";"module.training_block2.exec-4347.GoNoGo2";;;;;;;;;;;;;"1249";"2014-08-06 11:26:51.121";"NST_correctLoc";"23";"0";"FINISHED";"LEFT";"success";"360";"0";"2014-08-06 11:26:49.871";"3";;;;;;;;;;;;;;;;;;;;;;;;;;;;;;;;;;;;;;;;;;;;;
"!(km*(";"1989";;"Windows 7";"Rachel's Experiment (SCIAT)";"1.0";"1";"1";"1";"1";"1";"1";"2014-08-06 11:20:40.289";"2014-08-06 11:30:44.971";"1";"1";"1";"1";"0";"83";"82";"module.training_block2.exec-4347.GoNoGo2";;;;;;;;;;;;;"1249";"2014-08-06 11:26:53.660";"NST_correctLoc";"11";"1";"FINISHED";"RIGHT";"success";"369";"0";"2014-08-06 11:26:52.410";"2";;;;;;;;;;;;;;;;;;;;;;;;;;;;;;;;;;;;;;;;;;;;;
"!(km*(";"1989";;"Windows 7";"Rachel's Experiment (SCIAT)";"1.0";"1";"1";"1";"1";"1";"1";"2014-08-06 11:20:40.289";"2014-08-06 11:30:44.971";"1";"1";"1";"1";"0";"84";"83";"module.training_block2.exec-4347.GoNoGo2";;;;;;;;;;;;;"1249";"2014-08-06 11:26:56.198";"NST_correctLoc";"18";"0";"FINISHED";"LEFT";"success";"330";"0";"2014-08-06 11:26:54.948";"3";;;;;;;;;;;;;;;;;;;;;;;;;;;;;;;;;;;;;;;;;;;;;
"!(km*(";"1989";;"Windows 7";"Rachel's Experiment (SCIAT)";"1.0";"1";"1";"1";"1";"1";"1";"2014-08-06 11:20:40.289";"2014-08-06 11:30:44.971";"1";"1";"1";"1";"0";"85";"84";"module.training_block2.exec-4347.GoNoGo2";;;;;;;;;;;;;"1249";"2014-08-06 11:26:58.734";"NST_correctLoc";"1";"1";"FINISHED";"RIGHT";"success";"341";"0";"2014-08-06 11:26:57.484";"1";;;;;;;;;;;;;;;;;;;;;;;;;;;;;;;;;;;;;;;;;;;;;
"!(km*(";"1989";;"Windows 7";"Rachel's Experiment (SCIAT)";"1.0";"1";"1";"1";"1";"1";"1";"2014-08-06 11:20:40.289";"2014-08-06 11:30:44.971";"1";"1";"1";"1";"0";"86";"85";"module.training_block2.exec-4347.GoNoGo2";;;;;;;;;;;;;"1249";"2014-08-06 11:27:01.273";"NST_correctLoc";"25";"0";"FINISHED";"LEFT";"success";"336";"0";"2014-08-06 11:27:00.023";"3";;;;;;;;;;;;;;;;;;;;;;;;;;;;;;;;;;;;;;;;;;;;;
"!(km*(";"1989";;"Windows 7";"Rachel's Experiment (SCIAT)";"1.0";"1";"1";"1";"1";"1";"1";"2014-08-06 11:20:40.289";"2014-08-06 11:30:44.971";"1";"1";"1";"1";"0";"87";"86";"module.training_block2.exec-4347.GoNoGo2";;;;;;;;;;;;;"1249";"2014-08-06 11:27:03.803";"NST_correctLoc";"19";"1";"FINISHED";"RIGHT";"success";"313";"0";"2014-08-06 11:27:02.553";"3";;;;;;;;;;;;;;;;;;;;;;;;;;;;;;;;;;;;;;;;;;;;;
"!(km*(";"1989";;"Windows 7";"Rachel's Experiment (SCIAT)";"1.0";"1";"1";"1";"1";"1";"1";"2014-08-06 11:20:40.289";"2014-08-06 11:30:44.971";"1";"1";"1";"1";"0";"88";"87";"module.training_block3.exec-5821.GoNoGo3";;;;;;;;;;;;;;;;;;;;;;;;;"1249";"2014-08-06 11:27:14.112";"NST_correctLoc";"6";"1";"FINISHED";"RIGHT";"success";"342";"0";"2014-08-06 11:27:12.862";"1";;;;;;;;;;;;;;;;;;;;;;;;;;;;;;;;;
"!(km*(";"1989";;"Windows 7";"Rachel's Experiment (SCIAT)";"1.0";"1";"1";"1";"1";"1";"1";"2014-08-06 11:20:40.289";"2014-08-06 11:30:44.971";"1";"1";"1";"1";"0";"89";"88";"module.training_block3.exec-5821.GoNoGo3";;;;;;;;;;;;;;;;;;;;;;;;;"1250";"2014-08-06 11:27:16.645";"NST_correctLoc";"13";"1";"FINISHED";"RIGHT";"success";"340";"0";"2014-08-06 11:27:15.395";"2";;;;;;;;;;;;;;;;;;;;;;;;;;;;;;;;;
"!(km*(";"1989";;"Windows 7";"Rachel's Experiment (SCIAT)";"1.0";"1";"1";"1";"1";"1";"1";"2014-08-06 11:20:40.289";"2014-08-06 11:30:44.971";"1";"1";"1";"1";"0";"90";"89";"module.training_block3.exec-5821.GoNoGo3";;;;;;;;;;;;;;;;;;;;;;;;;"1250";"2014-08-06 11:27:19.183";"NST_correctLoc";"24";"1";"FINISHED";"RIGHT";"success";"374";"0";"2014-08-06 11:27:17.933";"3";;;;;;;;;;;;;;;;;;;;;;;;;;;;;;;;;
"!(km*(";"1989";;"Windows 7";"Rachel's Experiment (SCIAT)";"1.0";"1";"1";"1";"1";"1";"1";"2014-08-06 11:20:40.289";"2014-08-06 11:30:44.971";"1";"1";"1";"1";"0";"91";"90";"module.training_block3.exec-5821.GoNoGo3";;;;;;;;;;;;;;;;;;;;;;;;;"1249";"2014-08-06 11:27:21.720";"NST_correctLoc";"34";"1";"FINISHED";"RIGHT";"success";"368";"0";"2014-08-06 11:27:20.470";"3";;;;;;;;;;;;;;;;;;;;;;;;;;;;;;;;;
"!(km*(";"1989";;"Windows 7";"Rachel's Experiment (SCIAT)";"1.0";"1";"1";"1";"1";"1";"1";"2014-08-06 11:20:40.289";"2014-08-06 11:30:44.971";"1";"1";"1";"1";"0";"92";"91";"module.training_block3.exec-5821.GoNoGo3";;;;;;;;;;;;;;;;;;;;;;;;;"1250";"2014-08-06 11:27:24.257";"NST_correctLoc";"33";"0";"FINISHED";"LEFT";"success";"338";"0";"2014-08-06 11:27:23.006";"3";;;;;;;;;;;;;;;;;;;;;;;;;;;;;;;;;
"!(km*(";"1989";;"Windows 7";"Rachel's Experiment (SCIAT)";"1.0";"1";"1";"1";"1";"1";"1";"2014-08-06 11:20:40.289";"2014-08-06 11:30:44.971";"1";"1";"1";"1";"0";"93";"92";"module.training_block3.exec-5821.GoNoGo3";;;;;;;;;;;;;;;;;;;;;;;;;"1250";"2014-08-06 11:27:26.792";"NST_correctLoc";"15";"1";"FINISHED";"RIGHT";"success";"366";"0";"2014-08-06 11:27:25.542";"2";;;;;;;;;;;;;;;;;;;;;;;;;;;;;;;;;
"!(km*(";"1989";;"Windows 7";"Rachel's Experiment (SCIAT)";"1.0";"1";"1";"1";"1";"1";"1";"2014-08-06 11:20:40.289";"2014-08-06 11:30:44.971";"1";"1";"1";"1";"0";"94";"93";"module.training_block3.exec-5821.GoNoGo3";;;;;;;;;;;;;;;;;;;;;;;;;"1249";"2014-08-06 11:27:29.329";"NST_correctLoc";"11";"1";"FINISHED";"RIGHT";"success";"429";"0";"2014-08-06 11:27:28.079";"2";;;;;;;;;;;;;;;;;;;;;;;;;;;;;;;;;
"!(km*(";"1989";;"Windows 7";"Rachel's Experiment (SCIAT)";"1.0";"1";"1";"1";"1";"1";"1";"2014-08-06 11:20:40.289";"2014-08-06 11:30:44.971";"1";"1";"1";"1";"0";"95";"94";"module.training_block3.exec-5821.GoNoGo3";;;;;;;;;;;;;;;;;;;;;;;;;"1250";"2014-08-06 11:27:31.865";"NST_correctLoc";"2";"0";"FINISHED";"LEFT";"success";"499";"0";"2014-08-06 11:27:30.615";"1";;;;;;;;;;;;;;;;;;;;;;;;;;;;;;;;;
"!(km*(";"1989";;"Windows 7";"Rachel's Experiment (SCIAT)";"1.0";"1";"1";"1";"1";"1";"1";"2014-08-06 11:20:40.289";"2014-08-06 11:30:44.971";"1";"1";"1";"1";"0";"96";"95";"module.training_block3.exec-5821.GoNoGo3";;;;;;;;;;;;;;;;;;;;;;;;;"1249";"2014-08-06 11:27:34.400";"NST_correctLoc";"35";"0";"FINISHED";"LEFT";"success";"417";"0";"2014-08-06 11:27:33.150";"3";;;;;;;;;;;;;;;;;;;;;;;;;;;;;;;;;
"!(km*(";"1989";;"Windows 7";"Rachel's Experiment (SCIAT)";"1.0";"1";"1";"1";"1";"1";"1";"2014-08-06 11:20:40.289";"2014-08-06 11:30:44.971";"1";"1";"1";"1";"0";"97";"96";"module.training_block3.exec-5821.GoNoGo3";;;;;;;;;;;;;;;;;;;;;;;;;"1249";"2014-08-06 11:27:36.944";"NST_correctLoc";"4";"0";"FINISHED";"LEFT";"success";"341";"0";"2014-08-06 11:27:35.694";"1";;;;;;;;;;;;;;;;;;;;;;;;;;;;;;;;;
"!(km*(";"1989";;"Windows 7";"Rachel's Experiment (SCIAT)";"1.0";"1";"1";"1";"1";"1";"1";"2014-08-06 11:20:40.289";"2014-08-06 11:30:44.971";"1";"1";"1";"1";"0";"98";"97";"module.training_block3.exec-5821.GoNoGo3";;;;;;;;;;;;;;;;;;;;;;;;;"1250";"2014-08-06 11:27:39.478";"NST_correctLoc";"23";"1";"FINISHED";"RIGHT";"success";"406";"0";"2014-08-06 11:27:38.228";"3";;;;;;;;;;;;;;;;;;;;;;;;;;;;;;;;;
"!(km*(";"1989";;"Windows 7";"Rachel's Experiment (SCIAT)";"1.0";"1";"1";"1";"1";"1";"1";"2014-08-06 11:20:40.289";"2014-08-06 11:30:44.971";"1";"1";"1";"1";"0";"99";"98";"module.training_block3.exec-5821.GoNoGo3";;;;;;;;;;;;;;;;;;;;;;;;;"1249";"2014-08-06 11:27:42.019";"NST_correctLoc";"30";"0";"FINISHED";"LEFT";"success";"406";"0";"2014-08-06 11:27:40.769";"3";;;;;;;;;;;;;;;;;;;;;;;;;;;;;;;;;
"!(km*(";"1989";;"Windows 7";"Rachel's Experiment (SCIAT)";"1.0";"1";"1";"1";"1";"1";"1";"2014-08-06 11:20:40.289";"2014-08-06 11:30:44.971";"1";"1";"1";"1";"0";"100";"99";"module.training_block3.exec-5821.GoNoGo3";;;;;;;;;;;;;;;;;;;;;;;;;"1250";"2014-08-06 11:27:44.555";"NST_correctLoc";"17";"0";"FINISHED";"LEFT";"success";"400";"0";"2014-08-06 11:27:43.305";"2";;;;;;;;;;;;;;;;;;;;;;;;;;;;;;;;;
"!(km*(";"1989";;"Windows 7";"Rachel's Experiment (SCIAT)";"1.0";"1";"1";"1";"1";"1";"1";"2014-08-06 11:20:40.289";"2014-08-06 11:30:44.971";"1";"1";"1";"1";"0";"101";"100";"module.training_block3.exec-5821.GoNoGo3";;;;;;;;;;;;;;;;;;;;;;;;;"1250";"2014-08-06 11:27:47.090";"NST_correctLoc";"5";"1";"FINISHED";"RIGHT";"success";"378";"0";"2014-08-06 11:27:45.840";"1";;;;;;;;;;;;;;;;;;;;;;;;;;;;;;;;;
"!(km*(";"1989";;"Windows 7";"Rachel's Experiment (SCIAT)";"1.0";"1";"1";"1";"1";"1";"1";"2014-08-06 11:20:40.289";"2014-08-06 11:30:44.971";"1";"1";"1";"1";"0";"102";"101";"module.training_block3.exec-5821.GoNoGo3";;;;;;;;;;;;;;;;;;;;;;;;;"1250";"2014-08-06 11:27:49.627";"NST_correctLoc";"31";"0";"FINISHED";"LEFT";"success";"361";"0";"2014-08-06 11:27:48.377";"3";;;;;;;;;;;;;;;;;;;;;;;;;;;;;;;;;
"!(km*(";"1989";;"Windows 7";"Rachel's Experiment (SCIAT)";"1.0";"1";"1";"1";"1";"1";"1";"2014-08-06 11:20:40.289";"2014-08-06 11:30:44.971";"1";"1";"1";"1";"0";"103";"102";"module.training_block3.exec-5821.GoNoGo3";;;;;;;;;;;;;;;;;;;;;;;;;"1250";"2014-08-06 11:27:52.161";"NST_correctLoc";"16";"0";"FINISHED";"LEFT";"success";"428";"0";"2014-08-06 11:27:50.911";"2";;;;;;;;;;;;;;;;;;;;;;;;;;;;;;;;;
"!(km*(";"1989";;"Windows 7";"Rachel's Experiment (SCIAT)";"1.0";"1";"1";"1";"1";"1";"1";"2014-08-06 11:20:40.289";"2014-08-06 11:30:44.971";"1";"1";"1";"1";"0";"104";"103";"module.training_block3.exec-5821.GoNoGo3";;;;;;;;;;;;;;;;;;;;;;;;;"1250";"2014-08-06 11:27:54.695";"NST_correctLoc";"9";"0";"FINISHED";"LEFT";"success";"397";"0";"2014-08-06 11:27:53.445";"2";;;;;;;;;;;;;;;;;;;;;;;;;;;;;;;;;
"!(km*(";"1989";;"Windows 7";"Rachel's Experiment (SCIAT)";"1.0";"1";"1";"1";"1";"1";"1";"2014-08-06 11:20:40.289";"2014-08-06 11:30:44.971";"1";"1";"1";"1";"0";"105";"104";"module.training_block3.exec-5821.GoNoGo3";;;;;;;;;;;;;;;;;;;;;;;;;"1250";"2014-08-06 11:27:57.230";"NST_correctLoc";"18";"1";"FINISHED";"RIGHT";"success";"368";"0";"2014-08-06 11:27:55.980";"3";;;;;;;;;;;;;;;;;;;;;;;;;;;;;;;;;
"!(km*(";"1989";;"Windows 7";"Rachel's Experiment (SCIAT)";"1.0";"1";"1";"1";"1";"1";"1";"2014-08-06 11:20:40.289";"2014-08-06 11:30:44.971";"1";"1";"1";"1";"0";"106";"105";"module.training_block3.exec-5821.GoNoGo3";;;;;;;;;;;;;;;;;;;;;;;;;"1250";"2014-08-06 11:27:59.765";"NST_correctLoc";"25";"1";"FINISHED";"RIGHT";"success";"442";"0";"2014-08-06 11:27:58.515";"3";;;;;;;;;;;;;;;;;;;;;;;;;;;;;;;;;
"!(km*(";"1989";;"Windows 7";"Rachel's Experiment (SCIAT)";"1.0";"1";"1";"1";"1";"1";"1";"2014-08-06 11:20:40.289";"2014-08-06 11:30:44.971";"1";"1";"1";"1";"0";"107";"106";"module.training_block3.exec-5821.GoNoGo3";;;;;;;;;;;;;;;;;;;;;;;;;"1250";"2014-08-06 11:28:02.301";"NST_correctLoc";"21";"1";"FINISHED";"RIGHT";"success";"413";"0";"2014-08-06 11:28:01.051";"3";;;;;;;;;;;;;;;;;;;;;;;;;;;;;;;;;
"!(km*(";"1989";;"Windows 7";"Rachel's Experiment (SCIAT)";"1.0";"1";"1";"1";"1";"1";"1";"2014-08-06 11:20:40.289";"2014-08-06 11:30:44.971";"1";"1";"1";"1";"0";"108";"107";"module.training_block3.exec-5821.GoNoGo3";;;;;;;;;;;;;;;;;;;;;;;;;"1249";"2014-08-06 11:28:04.837";"NST_correctLoc";"27";"0";"FINISHED";"LEFT";"success";"380";"0";"2014-08-06 11:28:03.587";"3";;;;;;;;;;;;;;;;;;;;;;;;;;;;;;;;;
"!(km*(";"1989";;"Windows 7";"Rachel's Experiment (SCIAT)";"1.0";"1";"1";"1";"1";"1";"1";"2014-08-06 11:20:40.289";"2014-08-06 11:30:44.971";"1";"1";"1";"1";"0";"109";"108";"module.training_block3.exec-5821.GoNoGo3";;;;;;;;;;;;;;;;;;;;;;;;;"1250";"2014-08-06 11:28:07.371";"NST_correctLoc";"10";"0";"FINISHED";"LEFT";"success";"645";"0";"2014-08-06 11:28:06.121";"2";;;;;;;;;;;;;;;;;;;;;;;;;;;;;;;;;
"!(km*(";"1989";;"Windows 7";"Rachel's Experiment (SCIAT)";"1.0";"1";"1";"1";"1";"1";"1";"2014-08-06 11:20:40.289";"2014-08-06 11:30:44.971";"1";"1";"1";"1";"0";"110";"109";"module.training_block3.exec-5821.GoNoGo3";;;;;;;;;;;;;;;;;;;;;;;;;"1249";"2014-08-06 11:28:09.907";"NST_correctLoc";"14";"1";"FINISHED";"RIGHT";"success";"361";"0";"2014-08-06 11:28:08.657";"2";;;;;;;;;;;;;;;;;;;;;;;;;;;;;;;;;
"!(km*(";"1989";;"Windows 7";"Rachel's Experiment (SCIAT)";"1.0";"1";"1";"1";"1";"1";"1";"2014-08-06 11:20:40.289";"2014-08-06 11:30:44.971";"1";"1";"1";"1";"0";"111";"110";"module.training_block3.exec-5821.GoNoGo3";;;;;;;;;;;;;;;;;;;;;;;;;"1249";"2014-08-06 11:28:12.489";"NST_correctLoc";"22";"0";"FINISHED";"LEFT";"success";"346";"0";"2014-08-06 11:28:11.239";"3";;;;;;;;;;;;;;;;;;;;;;;;;;;;;;;;;
"!(km*(";"1989";;"Windows 7";"Rachel's Experiment (SCIAT)";"1.0";"1";"1";"1";"1";"1";"1";"2014-08-06 11:20:40.289";"2014-08-06 11:30:44.971";"1";"1";"1";"1";"0";"112";"111";"module.training_block3.exec-5821.GoNoGo3";;;;;;;;;;;;;;;;;;;;;;;;;"1250";"2014-08-06 11:28:15.023";"NST_correctLoc";"1";"1";"FINISHED";"RIGHT";"success";"306";"0";"2014-08-06 11:28:13.773";"1";;;;;;;;;;;;;;;;;;;;;;;;;;;;;;;;;
"!(km*(";"1989";;"Windows 7";"Rachel's Experiment (SCIAT)";"1.0";"1";"1";"1";"1";"1";"1";"2014-08-06 11:20:40.289";"2014-08-06 11:30:44.971";"1";"1";"1";"1";"0";"113";"112";"module.training_block3.exec-5821.GoNoGo3";;;;;;;;;;;;;;;;;;;;;;;;;"1250";"2014-08-06 11:28:17.558";"NST_correctLoc";"29";"1";"FINISHED";"RIGHT";"success";"295";"0";"2014-08-06 11:28:16.308";"3";;;;;;;;;;;;;;;;;;;;;;;;;;;;;;;;;
"!(km*(";"1989";;"Windows 7";"Rachel's Experiment (SCIAT)";"1.0";"1";"1";"1";"1";"1";"1";"2014-08-06 11:20:40.289";"2014-08-06 11:30:44.971";"1";"1";"1";"1";"0";"114";"113";"module.training_block3.exec-5821.GoNoGo3";;;;;;;;;;;;;;;;;;;;;;;;;"1250";"2014-08-06 11:28:20.092";"NST_correctLoc";"7";"0";"FINISHED";"LEFT";"success";"389";"0";"2014-08-06 11:28:18.842";"1";;;;;;;;;;;;;;;;;;;;;;;;;;;;;;;;;
"!(km*(";"1989";;"Windows 7";"Rachel's Experiment (SCIAT)";"1.0";"1";"1";"1";"1";"1";"1";"2014-08-06 11:20:40.289";"2014-08-06 11:30:44.971";"1";"1";"1";"1";"0";"115";"114";"module.training_block3.exec-5821.GoNoGo3";;;;;;;;;;;;;;;;;;;;;;;;;"1250";"2014-08-06 11:28:22.627";"NST_correctLoc";"12";"0";"FINISHED";"LEFT";"success";"335";"0";"2014-08-06 11:28:21.377";"2";;;;;;;;;;;;;;;;;;;;;;;;;;;;;;;;;
"!(km*(";"1989";;"Windows 7";"Rachel's Experiment (SCIAT)";"1.0";"1";"1";"1";"1";"1";"1";"2014-08-06 11:20:40.289";"2014-08-06 11:30:44.971";"1";"1";"1";"1";"0";"116";"115";"module.training_block3.exec-5821.GoNoGo3";;;;;;;;;;;;;;;;;;;;;;;;;"1250";"2014-08-06 11:28:25.161";"NST_miss";"3";"1";"FINISHED";"NONE";"failure";"0";"0";"2014-08-06 11:28:23.911";"1";;;;;;;;;;;;;;;;;;;;;;;;;;;;;;;;;
"!(km*(";"1989";;"Windows 7";"Rachel's Experiment (SCIAT)";"1.0";"1";"1";"1";"1";"1";"1";"2014-08-06 11:20:40.289";"2014-08-06 11:30:44.971";"1";"1";"1";"1";"0";"117";"116";"module.training_block3.exec-5821.GoNoGo3";;;;;;;;;;;;;;;;;;;;;;;;;"1249";"2014-08-06 11:28:27.694";"NST_correctLoc";"20";"1";"FINISHED";"RIGHT";"success";"438";"0";"2014-08-06 11:28:26.444";"3";;;;;;;;;;;;;;;;;;;;;;;;;;;;;;;;;
"!(km*(";"1989";;"Windows 7";"Rachel's Experiment (SCIAT)";"1.0";"1";"1";"1";"1";"1";"1";"2014-08-06 11:20:40.289";"2014-08-06 11:30:44.971";"1";"1";"1";"1";"0";"118";"117";"module.training_block3.exec-5821.GoNoGo3";;;;;;;;;;;;;;;;;;;;;;;;;"1250";"2014-08-06 11:28:30.244";"NST_correctLoc";"28";"0";"FINISHED";"LEFT";"success";"485";"0";"2014-08-06 11:28:28.994";"3";;;;;;;;;;;;;;;;;;;;;;;;;;;;;;;;;
"!(km*(";"1989";;"Windows 7";"Rachel's Experiment (SCIAT)";"1.0";"1";"1";"1";"1";"1";"1";"2014-08-06 11:20:40.289";"2014-08-06 11:30:44.971";"1";"1";"1";"1";"0";"119";"118";"module.training_block3.exec-5821.GoNoGo3";;;;;;;;;;;;;;;;;;;;;;;;;"1249";"2014-08-06 11:28:32.778";"NST_correctLoc";"32";"1";"FINISHED";"RIGHT";"success";"383";"0";"2014-08-06 11:28:31.528";"3";;;;;;;;;;;;;;;;;;;;;;;;;;;;;;;;;
"!(km*(";"1989";;"Windows 7";"Rachel's Experiment (SCIAT)";"1.0";"1";"1";"1";"1";"1";"1";"2014-08-06 11:20:40.289";"2014-08-06 11:30:44.971";"1";"1";"1";"1";"0";"120";"119";"module.training_block3.exec-5821.GoNoGo3";;;;;;;;;;;;;;;;;;;;;;;;;"1250";"2014-08-06 11:28:35.301";"NST_correctLoc";"19";"1";"FINISHED";"RIGHT";"success";"460";"0";"2014-08-06 11:28:34.051";"3";;;;;;;;;;;;;;;;;;;;;;;;;;;;;;;;;
"!(km*(";"1989";;"Windows 7";"Rachel's Experiment (SCIAT)";"1.0";"1";"1";"1";"1";"1";"1";"2014-08-06 11:20:40.289";"2014-08-06 11:30:44.971";"1";"1";"1";"1";"0";"121";"120";"module.training_block3.exec-5821.GoNoGo3";;;;;;;;;;;;;;;;;;;;;;;;;"1249";"2014-08-06 11:28:37.834";"NST_correctLoc";"0";"1";"FINISHED";"RIGHT";"success";"456";"0";"2014-08-06 11:28:36.584";"1";;;;;;;;;;;;;;;;;;;;;;;;;;;;;;;;;
"!(km*(";"1989";;"Windows 7";"Rachel's Experiment (SCIAT)";"1.0";"1";"1";"1";"1";"1";"1";"2014-08-06 11:20:40.289";"2014-08-06 11:30:44.971";"1";"1";"1";"1";"0";"122";"121";"module.training_block3.exec-5821.GoNoGo3";;;;;;;;;;;;;;;;;;;;;;;;;"1249";"2014-08-06 11:28:40.351";"NST_correctLoc";"8";"1";"FINISHED";"RIGHT";"success";"360";"0";"2014-08-06 11:28:39.101";"1";;;;;;;;;;;;;;;;;;;;;;;;;;;;;;;;;
"!(km*(";"1989";;"Windows 7";"Rachel's Experiment (SCIAT)";"1.0";"1";"1";"1";"1";"1";"1";"2014-08-06 11:20:40.289";"2014-08-06 11:30:44.971";"1";"1";"1";"1";"0";"123";"122";"module.training_block3.exec-5821.GoNoGo3";;;;;;;;;;;;;;;;;;;;;;;;;"1249";"2014-08-06 11:28:42.887";"NST_correctLoc";"26";"1";"FINISHED";"RIGHT";"success";"451";"0";"2014-08-06 11:28:41.637";"3";;;;;;;;;;;;;;;;;;;;;;;;;;;;;;;;;
"!(km*(";"1989";;"Windows 7";"Rachel's Experiment (SCIAT)";"1.0";"1";"1";"1";"1";"1";"1";"2014-08-06 11:20:40.289";"2014-08-06 11:30:44.971";"1";"1";"1";"1";"0";"124";"123";"module.training_block4.exec-9802.GoNoGo4";;;;;;;;;;;;;;;;;;;;;;;;;;;;;;;;;;;;;"1249";"2014-08-06 11:28:52.928";"NST_correctLoc";"35";"0";"FINISHED";"LEFT";"success";"431";"0";"2014-08-06 11:28:51.678";"3";;;;;;;;;;;;;;;;;;;;;
"!(km*(";"1989";;"Windows 7";"Rachel's Experiment (SCIAT)";"1.0";"1";"1";"1";"1";"1";"1";"2014-08-06 11:20:40.289";"2014-08-06 11:30:44.971";"1";"1";"1";"1";"0";"125";"124";"module.training_block4.exec-9802.GoNoGo4";;;;;;;;;;;;;;;;;;;;;;;;;;;;;;;;;;;;;"1250";"2014-08-06 11:28:55.461";"NST_correctLoc";"2";"1";"FINISHED";"RIGHT";"success";"350";"0";"2014-08-06 11:28:54.211";"1";;;;;;;;;;;;;;;;;;;;;
"!(km*(";"1989";;"Windows 7";"Rachel's Experiment (SCIAT)";"1.0";"1";"1";"1";"1";"1";"1";"2014-08-06 11:20:40.289";"2014-08-06 11:30:44.971";"1";"1";"1";"1";"0";"126";"125";"module.training_block4.exec-9802.GoNoGo4";;;;;;;;;;;;;;;;;;;;;;;;;;;;;;;;;;;;;"1249";"2014-08-06 11:28:57.991";"NST_correctLoc";"29";"0";"FINISHED";"LEFT";"success";"316";"0";"2014-08-06 11:28:56.741";"3";;;;;;;;;;;;;;;;;;;;;
"!(km*(";"1989";;"Windows 7";"Rachel's Experiment (SCIAT)";"1.0";"1";"1";"1";"1";"1";"1";"2014-08-06 11:20:40.289";"2014-08-06 11:30:44.971";"1";"1";"1";"1";"0";"127";"126";"module.training_block4.exec-9802.GoNoGo4";;;;;;;;;;;;;;;;;;;;;;;;;;;;;;;;;;;;;"1249";"2014-08-06 11:29:00.518";"NST_correctLoc";"3";"0";"FINISHED";"LEFT";"success";"364";"0";"2014-08-06 11:28:59.268";"1";;;;;;;;;;;;;;;;;;;;;
"!(km*(";"1989";;"Windows 7";"Rachel's Experiment (SCIAT)";"1.0";"1";"1";"1";"1";"1";"1";"2014-08-06 11:20:40.289";"2014-08-06 11:30:44.971";"1";"1";"1";"1";"0";"128";"127";"module.training_block4.exec-9802.GoNoGo4";;;;;;;;;;;;;;;;;;;;;;;;;;;;;;;;;;;;;"1249";"2014-08-06 11:29:03.053";"NST_correctLoc";"1";"1";"FINISHED";"RIGHT";"success";"336";"0";"2014-08-06 11:29:01.803";"1";;;;;;;;;;;;;;;;;;;;;
"!(km*(";"1989";;"Windows 7";"Rachel's Experiment (SCIAT)";"1.0";"1";"1";"1";"1";"1";"1";"2014-08-06 11:20:40.289";"2014-08-06 11:30:44.971";"1";"1";"1";"1";"0";"129";"128";"module.training_block4.exec-9802.GoNoGo4";;;;;;;;;;;;;;;;;;;;;;;;;;;;;;;;;;;;;"1250";"2014-08-06 11:29:05.586";"NST_correctLoc";"15";"0";"FINISHED";"LEFT";"success";"324";"0";"2014-08-06 11:29:04.336";"2";;;;;;;;;;;;;;;;;;;;;
"!(km*(";"1989";;"Windows 7";"Rachel's Experiment (SCIAT)";"1.0";"1";"1";"1";"1";"1";"1";"2014-08-06 11:20:40.289";"2014-08-06 11:30:44.971";"1";"1";"1";"1";"0";"130";"129";"module.training_block4.exec-9802.GoNoGo4";;;;;;;;;;;;;;;;;;;;;;;;;;;;;;;;;;;;;"1250";"2014-08-06 11:29:08.121";"NST_correctLoc";"7";"0";"FINISHED";"LEFT";"success";"383";"0";"2014-08-06 11:29:06.870";"1";;;;;;;;;;;;;;;;;;;;;
"!(km*(";"1989";;"Windows 7";"Rachel's Experiment (SCIAT)";"1.0";"1";"1";"1";"1";"1";"1";"2014-08-06 11:20:40.289";"2014-08-06 11:30:44.971";"1";"1";"1";"1";"0";"131";"130";"module.training_block4.exec-9802.GoNoGo4";;;;;;;;;;;;;;;;;;;;;;;;;;;;;;;;;;;;;"1250";"2014-08-06 11:29:10.649";"NST_correctLoc";"19";"0";"FINISHED";"LEFT";"success";"617";"0";"2014-08-06 11:29:09.399";"3";;;;;;;;;;;;;;;;;;;;;
"!(km*(";"1989";;"Windows 7";"Rachel's Experiment (SCIAT)";"1.0";"1";"1";"1";"1";"1";"1";"2014-08-06 11:20:40.289";"2014-08-06 11:30:44.971";"1";"1";"1";"1";"0";"132";"131";"module.training_block4.exec-9802.GoNoGo4";;;;;;;;;;;;;;;;;;;;;;;;;;;;;;;;;;;;;"1250";"2014-08-06 11:29:13.228";"NST_correctLoc";"10";"1";"FINISHED";"RIGHT";"success";"362";"0";"2014-08-06 11:29:11.978";"2";;;;;;;;;;;;;;;;;;;;;
"!(km*(";"1989";;"Windows 7";"Rachel's Experiment (SCIAT)";"1.0";"1";"1";"1";"1";"1";"1";"2014-08-06 11:20:40.289";"2014-08-06 11:30:44.971";"1";"1";"1";"1";"0";"133";"132";"module.training_block4.exec-9802.GoNoGo4";;;;;;;;;;;;;;;;;;;;;;;;;;;;;;;;;;;;;"1250";"2014-08-06 11:29:15.772";"NST_correctLoc";"31";"0";"FINISHED";"LEFT";"success";"344";"0";"2014-08-06 11:29:14.522";"3";;;;;;;;;;;;;;;;;;;;;
"!(km*(";"1989";;"Windows 7";"Rachel's Experiment (SCIAT)";"1.0";"1";"1";"1";"1";"1";"1";"2014-08-06 11:20:40.289";"2014-08-06 11:30:44.971";"1";"1";"1";"1";"0";"134";"133";"module.training_block4.exec-9802.GoNoGo4";;;;;;;;;;;;;;;;;;;;;;;;;;;;;;;;;;;;;"1250";"2014-08-06 11:29:18.305";"NST_correctLoc";"24";"1";"FINISHED";"RIGHT";"success";"366";"0";"2014-08-06 11:29:17.055";"3";;;;;;;;;;;;;;;;;;;;;
"!(km*(";"1989";;"Windows 7";"Rachel's Experiment (SCIAT)";"1.0";"1";"1";"1";"1";"1";"1";"2014-08-06 11:20:40.289";"2014-08-06 11:30:44.971";"1";"1";"1";"1";"0";"135";"134";"module.training_block4.exec-9802.GoNoGo4";;;;;;;;;;;;;;;;;;;;;;;;;;;;;;;;;;;;;"1249";"2014-08-06 11:29:20.841";"NST_wrongLoc";"16";"1";"FINISHED";"LEFT";"failure";"525";"0";"2014-08-06 11:29:19.591";"2";;;;;;;;;;;;;;;;;;;;;
"!(km*(";"1989";;"Windows 7";"Rachel's Experiment (SCIAT)";"1.0";"1";"1";"1";"1";"1";"1";"2014-08-06 11:20:40.289";"2014-08-06 11:30:44.971";"1";"1";"1";"1";"0";"136";"135";"module.training_block4.exec-9802.GoNoGo4";;;;;;;;;;;;;;;;;;;;;;;;;;;;;;;;;;;;;"1249";"2014-08-06 11:29:23.365";"NST_correctLoc";"8";"0";"FINISHED";"LEFT";"success";"490";"0";"2014-08-06 11:29:22.115";"1";;;;;;;;;;;;;;;;;;;;;
"!(km*(";"1989";;"Windows 7";"Rachel's Experiment (SCIAT)";"1.0";"1";"1";"1";"1";"1";"1";"2014-08-06 11:20:40.289";"2014-08-06 11:30:44.971";"1";"1";"1";"1";"0";"137";"136";"module.training_block4.exec-9802.GoNoGo4";;;;;;;;;;;;;;;;;;;;;;;;;;;;;;;;;;;;;"1250";"2014-08-06 11:29:25.900";"NST_correctLoc";"11";"0";"FINISHED";"LEFT";"success";"768";"0";"2014-08-06 11:29:24.649";"2";;;;;;;;;;;;;;;;;;;;;
"!(km*(";"1989";;"Windows 7";"Rachel's Experiment (SCIAT)";"1.0";"1";"1";"1";"1";"1";"1";"2014-08-06 11:20:40.289";"2014-08-06 11:30:44.971";"1";"1";"1";"1";"0";"138";"137";"module.training_block4.exec-9802.GoNoGo4";;;;;;;;;;;;;;;;;;;;;;;;;;;;;;;;;;;;;"1249";"2014-08-06 11:29:28.432";"NST_correctLoc";"12";"0";"FINISHED";"LEFT";"success";"396";"0";"2014-08-06 11:29:27.182";"2";;;;;;;;;;;;;;;;;;;;;
"!(km*(";"1989";;"Windows 7";"Rachel's Experiment (SCIAT)";"1.0";"1";"1";"1";"1";"1";"1";"2014-08-06 11:20:40.289";"2014-08-06 11:30:44.971";"1";"1";"1";"1";"0";"139";"138";"module.training_block4.exec-9802.GoNoGo4";;;;;;;;;;;;;;;;;;;;;;;;;;;;;;;;;;;;;"1249";"2014-08-06 11:29:30.951";"NST_correctLoc";"5";"0";"FINISHED";"LEFT";"success";"405";"0";"2014-08-06 11:29:29.701";"1";;;;;;;;;;;;;;;;;;;;;
"!(km*(";"1989";;"Windows 7";"Rachel's Experiment (SCIAT)";"1.0";"1";"1";"1";"1";"1";"1";"2014-08-06 11:20:40.289";"2014-08-06 11:30:44.971";"1";"1";"1";"1";"0";"140";"139";"module.training_block4.exec-9802.GoNoGo4";;;;;;;;;;;;;;;;;;;;;;;;;;;;;;;;;;;;;"1250";"2014-08-06 11:29:33.475";"NST_correctLoc";"28";"1";"FINISHED";"RIGHT";"success";"454";"0";"2014-08-06 11:29:32.225";"3";;;;;;;;;;;;;;;;;;;;;
"!(km*(";"1989";;"Windows 7";"Rachel's Experiment (SCIAT)";"1.0";"1";"1";"1";"1";"1";"1";"2014-08-06 11:20:40.289";"2014-08-06 11:30:44.971";"1";"1";"1";"1";"0";"141";"140";"module.training_block4.exec-9802.GoNoGo4";;;;;;;;;;;;;;;;;;;;;;;;;;;;;;;;;;;;;"1250";"2014-08-06 11:29:36.008";"NST_correctLoc";"25";"0";"FINISHED";"LEFT";"success";"393";"0";"2014-08-06 11:29:34.758";"3";;;;;;;;;;;;;;;;;;;;;
"!(km*(";"1989";;"Windows 7";"Rachel's Experiment (SCIAT)";"1.0";"1";"1";"1";"1";"1";"1";"2014-08-06 11:20:40.289";"2014-08-06 11:30:44.971";"1";"1";"1";"1";"0";"142";"141";"module.training_block4.exec-9802.GoNoGo4";;;;;;;;;;;;;;;;;;;;;;;;;;;;;;;;;;;;;"1250";"2014-08-06 11:29:38.541";"NST_correctLoc";"30";"1";"FINISHED";"RIGHT";"success";"381";"0";"2014-08-06 11:29:37.291";"3";;;;;;;;;;;;;;;;;;;;;
"!(km*(";"1989";;"Windows 7";"Rachel's Experiment (SCIAT)";"1.0";"1";"1";"1";"1";"1";"1";"2014-08-06 11:20:40.289";"2014-08-06 11:30:44.971";"1";"1";"1";"1";"0";"143";"142";"module.training_block4.exec-9802.GoNoGo4";;;;;;;;;;;;;;;;;;;;;;;;;;;;;;;;;;;;;"1249";"2014-08-06 11:29:41.075";"NST_correctLoc";"14";"0";"FINISHED";"LEFT";"success";"397";"0";"2014-08-06 11:29:39.825";"2";;;;;;;;;;;;;;;;;;;;;
"!(km*(";"1989";;"Windows 7";"Rachel's Experiment (SCIAT)";"1.0";"1";"1";"1";"1";"1";"1";"2014-08-06 11:20:40.289";"2014-08-06 11:30:44.971";"1";"1";"1";"1";"0";"144";"143";"module.training_block4.exec-9802.GoNoGo4";;;;;;;;;;;;;;;;;;;;;;;;;;;;;;;;;;;;;"1250";"2014-08-06 11:29:43.600";"NST_correctLoc";"13";"0";"FINISHED";"LEFT";"success";"563";"0";"2014-08-06 11:29:42.349";"2";;;;;;;;;;;;;;;;;;;;;
"!(km*(";"1989";;"Windows 7";"Rachel's Experiment (SCIAT)";"1.0";"1";"1";"1";"1";"1";"1";"2014-08-06 11:20:40.289";"2014-08-06 11:30:44.971";"1";"1";"1";"1";"0";"145";"144";"module.training_block4.exec-9802.GoNoGo4";;;;;;;;;;;;;;;;;;;;;;;;;;;;;;;;;;;;;"1250";"2014-08-06 11:29:46.133";"NST_correctLoc";"22";"0";"FINISHED";"LEFT";"success";"418";"0";"2014-08-06 11:29:44.883";"3";;;;;;;;;;;;;;;;;;;;;
"!(km*(";"1989";;"Windows 7";"Rachel's Experiment (SCIAT)";"1.0";"1";"1";"1";"1";"1";"1";"2014-08-06 11:20:40.289";"2014-08-06 11:30:44.971";"1";"1";"1";"1";"0";"146";"145";"module.training_block4.exec-9802.GoNoGo4";;;;;;;;;;;;;;;;;;;;;;;;;;;;;;;;;;;;;"1250";"2014-08-06 11:29:48.666";"NST_correctLoc";"18";"0";"FINISHED";"LEFT";"success";"412";"0";"2014-08-06 11:29:47.416";"3";;;;;;;;;;;;;;;;;;;;;
"!(km*(";"1989";;"Windows 7";"Rachel's Experiment (SCIAT)";"1.0";"1";"1";"1";"1";"1";"1";"2014-08-06 11:20:40.289";"2014-08-06 11:30:44.971";"1";"1";"1";"1";"0";"147";"146";"module.training_block4.exec-9802.GoNoGo4";;;;;;;;;;;;;;;;;;;;;;;;;;;;;;;;;;;;;"1250";"2014-08-06 11:29:51.199";"NST_correctLoc";"4";"0";"FINISHED";"LEFT";"success";"455";"0";"2014-08-06 11:29:49.949";"1";;;;;;;;;;;;;;;;;;;;;
"!(km*(";"1989";;"Windows 7";"Rachel's Experiment (SCIAT)";"1.0";"1";"1";"1";"1";"1";"1";"2014-08-06 11:20:40.289";"2014-08-06 11:30:44.971";"1";"1";"1";"1";"0";"148";"147";"module.training_block4.exec-9802.GoNoGo4";;;;;;;;;;;;;;;;;;;;;;;;;;;;;;;;;;;;;"1249";"2014-08-06 11:29:53.733";"NST_correctLoc";"6";"0";"FINISHED";"LEFT";"success";"603";"0";"2014-08-06 11:29:52.483";"1";;;;;;;;;;;;;;;;;;;;;
"!(km*(";"1989";;"Windows 7";"Rachel's Experiment (SCIAT)";"1.0";"1";"1";"1";"1";"1";"1";"2014-08-06 11:20:40.289";"2014-08-06 11:30:44.971";"1";"1";"1";"1";"0";"149";"148";"module.training_block4.exec-9802.GoNoGo4";;;;;;;;;;;;;;;;;;;;;;;;;;;;;;;;;;;;;"1250";"2014-08-06 11:29:56.266";"NST_correctLoc";"9";"0";"FINISHED";"LEFT";"success";"380";"0";"2014-08-06 11:29:55.016";"2";;;;;;;;;;;;;;;;;;;;;
"!(km*(";"1989";;"Windows 7";"Rachel's Experiment (SCIAT)";"1.0";"1";"1";"1";"1";"1";"1";"2014-08-06 11:20:40.289";"2014-08-06 11:30:44.971";"1";"1";"1";"1";"0";"150";"149";"module.training_block4.exec-9802.GoNoGo4";;;;;;;;;;;;;;;;;;;;;;;;;;;;;;;;;;;;;"1250";"2014-08-06 11:29:58.799";"NST_correctLoc";"32";"0";"FINISHED";"LEFT";"success";"610";"0";"2014-08-06 11:29:57.549";"3";;;;;;;;;;;;;;;;;;;;;
"!(km*(";"1989";;"Windows 7";"Rachel's Experiment (SCIAT)";"1.0";"1";"1";"1";"1";"1";"1";"2014-08-06 11:20:40.289";"2014-08-06 11:30:44.971";"1";"1";"1";"1";"0";"151";"150";"module.training_block4.exec-9802.GoNoGo4";;;;;;;;;;;;;;;;;;;;;;;;;;;;;;;;;;;;;"1249";"2014-08-06 11:30:01.330";"NST_correctLoc";"26";"1";"FINISHED";"RIGHT";"success";"371";"0";"2014-08-06 11:30:00.079";"3";;;;;;;;;;;;;;;;;;;;;
"!(km*(";"1989";;"Windows 7";"Rachel's Experiment (SCIAT)";"1.0";"1";"1";"1";"1";"1";"1";"2014-08-06 11:20:40.289";"2014-08-06 11:30:44.971";"1";"1";"1";"1";"0";"152";"151";"module.training_block4.exec-9802.GoNoGo4";;;;;;;;;;;;;;;;;;;;;;;;;;;;;;;;;;;;;"1250";"2014-08-06 11:30:03.872";"NST_correctLoc";"17";"0";"FINISHED";"LEFT";"success";"364";"0";"2014-08-06 11:30:02.622";"2";;;;;;;;;;;;;;;;;;;;;
"!(km*(";"1989";;"Windows 7";"Rachel's Experiment (SCIAT)";"1.0";"1";"1";"1";"1";"1";"1";"2014-08-06 11:20:40.289";"2014-08-06 11:30:44.971";"1";"1";"1";"1";"0";"153";"152";"module.training_block4.exec-9802.GoNoGo4";;;;;;;;;;;;;;;;;;;;;;;;;;;;;;;;;;;;;"1250";"2014-08-06 11:30:06.404";"NST_correctLoc";"27";"1";"FINISHED";"RIGHT";"success";"389";"0";"2014-08-06 11:30:05.154";"3";;;;;;;;;;;;;;;;;;;;;
"!(km*(";"1989";;"Windows 7";"Rachel's Experiment (SCIAT)";"1.0";"1";"1";"1";"1";"1";"1";"2014-08-06 11:20:40.289";"2014-08-06 11:30:44.971";"1";"1";"1";"1";"0";"154";"153";"module.training_block4.exec-9802.GoNoGo4";;;;;;;;;;;;;;;;;;;;;;;;;;;;;;;;;;;;;"1250";"2014-08-06 11:30:08.936";"NST_correctLoc";"20";"0";"FINISHED";"LEFT";"success";"733";"0";"2014-08-06 11:30:07.686";"3";;;;;;;;;;;;;;;;;;;;;
"!(km*(";"1989";;"Windows 7";"Rachel's Experiment (SCIAT)";"1.0";"1";"1";"1";"1";"1";"1";"2014-08-06 11:20:40.289";"2014-08-06 11:30:44.971";"1";"1";"1";"1";"0";"155";"154";"module.training_block4.exec-9802.GoNoGo4";;;;;;;;;;;;;;;;;;;;;;;;;;;;;;;;;;;;;"1250";"2014-08-06 11:30:11.468";"NST_correctLoc";"0";"1";"FINISHED";"RIGHT";"success";"386";"0";"2014-08-06 11:30:10.218";"1";;;;;;;;;;;;;;;;;;;;;
"!(km*(";"1989";;"Windows 7";"Rachel's Experiment (SCIAT)";"1.0";"1";"1";"1";"1";"1";"1";"2014-08-06 11:20:40.289";"2014-08-06 11:30:44.971";"1";"1";"1";"1";"0";"156";"155";"module.training_block4.exec-9802.GoNoGo4";;;;;;;;;;;;;;;;;;;;;;;;;;;;;;;;;;;;;"1250";"2014-08-06 11:30:14.085";"NST_correctLoc";"33";"1";"FINISHED";"RIGHT";"success";"582";"0";"2014-08-06 11:30:12.835";"3";;;;;;;;;;;;;;;;;;;;;
"!(km*(";"1989";;"Windows 7";"Rachel's Experiment (SCIAT)";"1.0";"1";"1";"1";"1";"1";"1";"2014-08-06 11:20:40.289";"2014-08-06 11:30:44.971";"1";"1";"1";"1";"0";"157";"156";"module.training_block4.exec-9802.GoNoGo4";;;;;;;;;;;;;;;;;;;;;;;;;;;;;;;;;;;;;"1250";"2014-08-06 11:30:16.620";"NST_correctLoc";"21";"0";"FINISHED";"LEFT";"success";"595";"0";"2014-08-06 11:30:15.370";"3";;;;;;;;;;;;;;;;;;;;;
"!(km*(";"1989";;"Windows 7";"Rachel's Experiment (SCIAT)";"1.0";"1";"1";"1";"1";"1";"1";"2014-08-06 11:20:40.289";"2014-08-06 11:30:44.971";"1";"1";"1";"1";"0";"158";"157";"module.training_block4.exec-9802.GoNoGo4";;;;;;;;;;;;;;;;;;;;;;;;;;;;;;;;;;;;;"1249";"2014-08-06 11:30:19.152";"NST_correctLoc";"34";"0";"FINISHED";"LEFT";"success";"414";"0";"2014-08-06 11:30:17.901";"3";;;;;;;;;;;;;;;;;;;;;
"!(km*(";"1989";;"Windows 7";"Rachel's Experiment (SCIAT)";"1.0";"1";"1";"1";"1";"1";"1";"2014-08-06 11:20:40.289";"2014-08-06 11:30:44.971";"1";"1";"1";"1";"0";"159";"158";"module.training_block4.exec-9802.GoNoGo4";;;;;;;;;;;;;;;;;;;;;;;;;;;;;;;;;;;;;"1250";"2014-08-06 11:30:21.685";"NST_correctLoc";"23";"0";"FINISHED";"LEFT";"success";"405";"0";"2014-08-06 11:30:20.435";"3";;;;;;;;;;;;;;;;;;;;;
