"user.name";"user.yearOfBirth";"user.sex";"user.osName";"module.name";"module.version";"module.online.subject.code";"module.online.study.id";"module.online.module.nr";"module.online.group.nr";"session.id";"session.index";"session.startTime";"session.endTime";"session.completed";"session.node-5513.blockOrder";"session.node-5513.IATorder";"session.node-5513.keyOrder";"session.node-5536.conditionType";"trial.id";"trial.index";"trial.name";"trial.GoNoGo1.durationTime";"trial.GoNoGo1.endTime";"trial.GoNoGo1.icon";"trial.GoNoGo1.location";"trial.GoNoGo1.outcome";"trial.GoNoGo1.response";"trial.GoNoGo1.result";"trial.GoNoGo1.RT";"trial.GoNoGo1.signal";"trial.GoNoGo1.startTime";"trial.GoNoGo1.stimulus type";"trial.GoNoGo_Practice.durationTime";"trial.GoNoGo_Practice.endTime";"trial.GoNoGo_Practice.icon";"trial.GoNoGo_Practice.location";"trial.GoNoGo_Practice.outcome";"trial.GoNoGo_Practice.response";"trial.GoNoGo_Practice.result";"trial.GoNoGo_Practice.RT";"trial.GoNoGo_Practice.signal";"trial.GoNoGo_Practice.startTime";"trial.GoNoGo_Practice.stimulus type";"trial.GoNoGo_Tutorial.durationTime";"trial.GoNoGo_Tutorial.endTime";"trial.GoNoGo_Tutorial.icon";"trial.GoNoGo_Tutorial.location";"trial.GoNoGo_Tutorial.outcome";"trial.GoNoGo_Tutorial.response";"trial.GoNoGo_Tutorial.result";"trial.GoNoGo_Tutorial.RT";"trial.GoNoGo_Tutorial.signal";"trial.GoNoGo_Tutorial.startTime"
"gfg";;;"Windows 7";"Rachels Experiment";"1.0";"1";"1";"1";"1";"1";"1";"2014-02-11 15:17:15.553";"2014-02-11 15:19:52.227";"1";"1";"0";"0";"1";"1";"0";"module.GoNoGotutorial.exec-5510.GoNoGo_Tutorial";;;;;;;;;;;;;;;;;;;;;;;"3999";"2014-02-11 15:17:24.590";"leftResponse";"0";"FINISHED";"NONE";"failure";"0";"0";"2014-02-11 15:17:20.590"
"gfg";;;"Windows 7";"Rachels Experiment";"1.0";"1";"1";"1";"1";"1";"1";"2014-02-11 15:17:15.553";"2014-02-11 15:19:52.227";"1";"1";"0";"0";"1";"2";"1";"module.GoNoGotutorial.exec-5510.GoNoGo_Tutorial";;;;;;;;;;;;;;;;;;;;;;;"4000";"2014-02-11 15:17:29.872";"rightResponse";"1";"FINISHED";"NONE";"failure";"0";"0";"2014-02-11 15:17:25.872"
"gfg";;;"Windows 7";"Rachels Experiment";"1.0";"1";"1";"1";"1";"1";"1";"2014-02-11 15:17:15.553";"2014-02-11 15:19:52.227";"1";"1";"0";"0";"1";"3";"2";"module.GoNoGotutorial.exec-5510.GoNoGo_Tutorial";;;;;;;;;;;;;;;;;;;;;;;"3999";"2014-02-11 15:17:35.157";"signalResponse";"0";"FINISHED";"NONE";"success";"0";"1";"2014-02-11 15:17:31.157"
"gfg";;;"Windows 7";"Rachels Experiment";"1.0";"1";"1";"1";"1";"1";"1";"2014-02-11 15:17:15.553";"2014-02-11 15:19:52.227";"1";"1";"0";"0";"1";"4";"3";"module.GoNoGopractice.exec-4358.GoNoGo_Practice";;;;;;;;;;;;"1958";"2014-02-11 15:17:40.829";"18";"0";"FINISHED";"NONE";"failure";"0";"0";"2014-02-11 15:17:38.871";"3";;;;;;;;;;
"gfg";;;"Windows 7";"Rachels Experiment";"1.0";"1";"1";"1";"1";"1";"1";"2014-02-11 15:17:15.553";"2014-02-11 15:19:52.227";"1";"1";"0";"0";"1";"5";"4";"module.GoNoGopractice.exec-4358.GoNoGo_Practice";;;;;;;;;;;;"1953";"2014-02-11 15:17:44.060";"21";"1";"FINISHED";"RIGHT";"success";"411";"0";"2014-02-11 15:17:42.107";"3";;;;;;;;;;
"gfg";;;"Windows 7";"Rachels Experiment";"1.0";"1";"1";"1";"1";"1";"1";"2014-02-11 15:17:15.553";"2014-02-11 15:19:52.227";"1";"1";"0";"0";"1";"6";"5";"module.GoNoGopractice.exec-4358.GoNoGo_Practice";;;;;;;;;;;;"1958";"2014-02-11 15:17:47.301";"14";"1";"FINISHED";"NONE";"success";"0";"1";"2014-02-11 15:17:45.342";"2";;;;;;;;;;
"gfg";;;"Windows 7";"Rachels Experiment";"1.0";"1";"1";"1";"1";"1";"1";"2014-02-11 15:17:15.553";"2014-02-11 15:19:52.227";"1";"1";"0";"0";"1";"7";"6";"module.GoNoGopractice.exec-4358.GoNoGo_Practice";;;;;;;;;;;;"1952";"2014-02-11 15:17:50.687";"26";"0";"FINISHED";"LEFT";"success";"591";"0";"2014-02-11 15:17:48.735";"3";;;;;;;;;;
"gfg";;;"Windows 7";"Rachels Experiment";"1.0";"1";"1";"1";"1";"1";"1";"2014-02-11 15:17:15.553";"2014-02-11 15:19:52.227";"1";"1";"0";"0";"1";"8";"7";"module.GoNoGopractice.exec-4358.GoNoGo_Practice";;;;;;;;;;;;"1951";"2014-02-11 15:17:53.920";"2";"0";"FINISHED";"LEFT";"success";"613";"0";"2014-02-11 15:17:51.969";"1";;;;;;;;;;
"gfg";;;"Windows 7";"Rachels Experiment";"1.0";"1";"1";"1";"1";"1";"1";"2014-02-11 15:17:15.553";"2014-02-11 15:19:52.227";"1";"1";"0";"0";"1";"9";"8";"module.GoNoGopractice.exec-4358.GoNoGo_Practice";;;;;;;;;;;;"1949";"2014-02-11 15:17:57.152";"30";"0";"FINISHED";"NONE";"success";"0";"1";"2014-02-11 15:17:55.202";"3";;;;;;;;;;
"gfg";;;"Windows 7";"Rachels Experiment";"1.0";"1";"1";"1";"1";"1";"1";"2014-02-11 15:17:15.553";"2014-02-11 15:19:52.227";"1";"1";"0";"0";"1";"10";"9";"module.GoNoGopractice.exec-4358.GoNoGo_Practice";;;;;;;;;;;;"1949";"2014-02-11 15:18:00.385";"6";"1";"FINISHED";"NONE";"success";"0";"1";"2014-02-11 15:17:58.435";"1";;;;;;;;;;
"gfg";;;"Windows 7";"Rachels Experiment";"1.0";"1";"1";"1";"1";"1";"1";"2014-02-11 15:17:15.553";"2014-02-11 15:19:52.227";"1";"1";"0";"0";"1";"11";"10";"module.GoNoGopractice.exec-4358.GoNoGo_Practice";;;;;;;;;;;;"1951";"2014-02-11 15:18:03.610";"34";"0";"FINISHED";"NONE";"failure";"0";"0";"2014-02-11 15:18:01.658";"3";;;;;;;;;;
"gfg";;;"Windows 7";"Rachels Experiment";"1.0";"1";"1";"1";"1";"1";"1";"2014-02-11 15:17:15.553";"2014-02-11 15:19:52.227";"1";"1";"0";"0";"1";"12";"11";"module.GoNoGopractice.exec-4358.GoNoGo_Practice";;;;;;;;;;;;"1949";"2014-02-11 15:18:06.832";"23";"1";"FINISHED";"RIGHT";"success";"740";"0";"2014-02-11 15:18:04.881";"3";;;;;;;;;;
"gfg";;;"Windows 7";"Rachels Experiment";"1.0";"1";"1";"1";"1";"1";"1";"2014-02-11 15:17:15.553";"2014-02-11 15:19:52.227";"1";"1";"0";"0";"1";"13";"12";"module.GoNoGopractice.exec-4358.GoNoGo_Practice";;;;;;;;;;;;"1950";"2014-02-11 15:18:10.053";"13";"0";"FINISHED";"NONE";"success";"0";"1";"2014-02-11 15:18:08.103";"2";;;;;;;;;;
"gfg";;;"Windows 7";"Rachels Experiment";"1.0";"1";"1";"1";"1";"1";"1";"2014-02-11 15:17:15.553";"2014-02-11 15:19:52.227";"1";"1";"0";"0";"1";"14";"13";"module.GoNoGopractice.exec-4358.GoNoGo_Practice";;;;;;;;;;;;"1950";"2014-02-11 15:18:13.275";"3";"1";"FINISHED";"RIGHT";"success";"745";"0";"2014-02-11 15:18:11.324";"1";;;;;;;;;;
"gfg";;;"Windows 7";"Rachels Experiment";"1.0";"1";"1";"1";"1";"1";"1";"2014-02-11 15:17:15.553";"2014-02-11 15:19:52.227";"1";"1";"0";"0";"1";"15";"14";"module.GoNoGopractice.exec-4358.GoNoGo_Practice";;;;;;;;;;;;"1951";"2014-02-11 15:18:16.503";"27";"1";"FINISHED";"RIGHT";"failure";"726";"1";"2014-02-11 15:18:14.551";"3";;;;;;;;;;
"gfg";;;"Windows 7";"Rachels Experiment";"1.0";"1";"1";"1";"1";"1";"1";"2014-02-11 15:17:15.553";"2014-02-11 15:19:52.227";"1";"1";"0";"0";"1";"16";"15";"module.training_block1.exec-4023.GoNoGo1";"1249";"2014-02-11 15:18:21.958";"19";"0";"FINISHED";"NONE";"success";"0";"1";"2014-02-11 15:18:20.708";"3";;;;;;;;;;;;;;;;;;;;;
"gfg";;;"Windows 7";"Rachels Experiment";"1.0";"1";"1";"1";"1";"1";"1";"2014-02-11 15:17:15.553";"2014-02-11 15:19:52.227";"1";"1";"0";"0";"1";"17";"16";"module.training_block1.exec-4023.GoNoGo1";"1249";"2014-02-11 15:18:24.481";"20";"1";"FINISHED";"NONE";"failure";"0";"0";"2014-02-11 15:18:23.231";"3";;;;;;;;;;;;;;;;;;;;;
"gfg";;;"Windows 7";"Rachels Experiment";"1.0";"1";"1";"1";"1";"1";"1";"2014-02-11 15:17:15.553";"2014-02-11 15:19:52.227";"1";"1";"0";"0";"1";"18";"17";"module.training_block1.exec-4023.GoNoGo1";"1249";"2014-02-11 15:18:27.002";"7";"1";"FINISHED";"NONE";"success";"0";"1";"2014-02-11 15:18:25.752";"1";;;;;;;;;;;;;;;;;;;;;
"gfg";;;"Windows 7";"Rachels Experiment";"1.0";"1";"1";"1";"1";"1";"1";"2014-02-11 15:17:15.553";"2014-02-11 15:19:52.227";"1";"1";"0";"0";"1";"19";"18";"module.training_block1.exec-4023.GoNoGo1";"1249";"2014-02-11 15:18:29.523";"5";"0";"FINISHED";"NONE";"success";"0";"1";"2014-02-11 15:18:28.273";"1";;;;;;;;;;;;;;;;;;;;;
"gfg";;;"Windows 7";"Rachels Experiment";"1.0";"1";"1";"1";"1";"1";"1";"2014-02-11 15:17:15.553";"2014-02-11 15:19:52.227";"1";"1";"0";"0";"1";"20";"19";"module.training_block1.exec-4023.GoNoGo1";"1249";"2014-02-11 15:18:32.041";"31";"0";"FINISHED";"NONE";"failure";"0";"0";"2014-02-11 15:18:30.791";"3";;;;;;;;;;;;;;;;;;;;;
"gfg";;;"Windows 7";"Rachels Experiment";"1.0";"1";"1";"1";"1";"1";"1";"2014-02-11 15:17:15.553";"2014-02-11 15:19:52.227";"1";"1";"0";"0";"1";"21";"20";"module.training_block1.exec-4023.GoNoGo1";"1249";"2014-02-11 15:18:34.565";"13";"0";"FINISHED";"NONE";"failure";"0";"0";"2014-02-11 15:18:33.315";"2";;;;;;;;;;;;;;;;;;;;;
"gfg";;;"Windows 7";"Rachels Experiment";"1.0";"1";"1";"1";"1";"1";"1";"2014-02-11 15:17:15.553";"2014-02-11 15:19:52.227";"1";"1";"0";"0";"1";"22";"21";"module.training_block1.exec-4023.GoNoGo1";"1250";"2014-02-11 15:18:37.086";"0";"0";"FINISHED";"NONE";"success";"0";"1";"2014-02-11 15:18:35.836";"1";;;;;;;;;;;;;;;;;;;;;
"gfg";;;"Windows 7";"Rachels Experiment";"1.0";"1";"1";"1";"1";"1";"1";"2014-02-11 15:17:15.553";"2014-02-11 15:19:52.227";"1";"1";"0";"0";"1";"23";"22";"module.training_block1.exec-4023.GoNoGo1";"1249";"2014-02-11 15:18:39.610";"16";"1";"FINISHED";"NONE";"failure";"0";"0";"2014-02-11 15:18:38.360";"2";;;;;;;;;;;;;;;;;;;;;
"gfg";;;"Windows 7";"Rachels Experiment";"1.0";"1";"1";"1";"1";"1";"1";"2014-02-11 15:17:15.553";"2014-02-11 15:19:52.227";"1";"1";"0";"0";"1";"24";"23";"module.training_block1.exec-4023.GoNoGo1";"1249";"2014-02-11 15:18:42.131";"30";"1";"FINISHED";"NONE";"success";"0";"1";"2014-02-11 15:18:40.881";"3";;;;;;;;;;;;;;;;;;;;;
"gfg";;;"Windows 7";"Rachels Experiment";"1.0";"1";"1";"1";"1";"1";"1";"2014-02-11 15:17:15.553";"2014-02-11 15:19:52.227";"1";"1";"0";"0";"1";"25";"24";"module.training_block1.exec-4023.GoNoGo1";"1250";"2014-02-11 15:18:44.658";"35";"1";"FINISHED";"NONE";"failure";"0";"0";"2014-02-11 15:18:43.407";"3";;;;;;;;;;;;;;;;;;;;;
"gfg";;;"Windows 7";"Rachels Experiment";"1.0";"1";"1";"1";"1";"1";"1";"2014-02-11 15:17:15.553";"2014-02-11 15:19:52.227";"1";"1";"0";"0";"1";"26";"25";"module.training_block1.exec-4023.GoNoGo1";"1249";"2014-02-11 15:18:47.180";"27";"1";"FINISHED";"NONE";"failure";"0";"0";"2014-02-11 15:18:45.930";"3";;;;;;;;;;;;;;;;;;;;;
"gfg";;;"Windows 7";"Rachels Experiment";"1.0";"1";"1";"1";"1";"1";"1";"2014-02-11 15:17:15.553";"2014-02-11 15:19:52.227";"1";"1";"0";"0";"1";"27";"26";"module.training_block1.exec-4023.GoNoGo1";"1249";"2014-02-11 15:18:49.705";"12";"0";"FINISHED";"NONE";"failure";"0";"0";"2014-02-11 15:18:48.455";"2";;;;;;;;;;;;;;;;;;;;;
"gfg";;;"Windows 7";"Rachels Experiment";"1.0";"1";"1";"1";"1";"1";"1";"2014-02-11 15:17:15.553";"2014-02-11 15:19:52.227";"1";"1";"0";"0";"1";"28";"27";"module.training_block1.exec-4023.GoNoGo1";"1249";"2014-02-11 15:18:52.223";"25";"0";"FINISHED";"NONE";"success";"0";"1";"2014-02-11 15:18:50.973";"3";;;;;;;;;;;;;;;;;;;;;
"gfg";;;"Windows 7";"Rachels Experiment";"1.0";"1";"1";"1";"1";"1";"1";"2014-02-11 15:17:15.553";"2014-02-11 15:19:52.227";"1";"1";"0";"0";"1";"29";"28";"module.training_block1.exec-4023.GoNoGo1";"1249";"2014-02-11 15:18:54.741";"1";"1";"FINISHED";"NONE";"failure";"0";"0";"2014-02-11 15:18:53.491";"1";;;;;;;;;;;;;;;;;;;;;
"gfg";;;"Windows 7";"Rachels Experiment";"1.0";"1";"1";"1";"1";"1";"1";"2014-02-11 15:17:15.553";"2014-02-11 15:19:52.227";"1";"1";"0";"0";"1";"30";"29";"module.training_block1.exec-4023.GoNoGo1";"1249";"2014-02-11 15:18:57.259";"9";"1";"FINISHED";"NONE";"failure";"0";"0";"2014-02-11 15:18:56.009";"2";;;;;;;;;;;;;;;;;;;;;
"gfg";;;"Windows 7";"Rachels Experiment";"1.0";"1";"1";"1";"1";"1";"1";"2014-02-11 15:17:15.553";"2014-02-11 15:19:52.227";"1";"1";"0";"0";"1";"31";"30";"module.training_block1.exec-4023.GoNoGo1";"1249";"2014-02-11 15:18:59.775";"26";"1";"FINISHED";"NONE";"failure";"0";"0";"2014-02-11 15:18:58.525";"3";;;;;;;;;;;;;;;;;;;;;
"gfg";;;"Windows 7";"Rachels Experiment";"1.0";"1";"1";"1";"1";"1";"1";"2014-02-11 15:17:15.553";"2014-02-11 15:19:52.227";"1";"1";"0";"0";"1";"32";"31";"module.training_block1.exec-4023.GoNoGo1";"1249";"2014-02-11 15:19:02.293";"33";"0";"FINISHED";"NONE";"success";"0";"1";"2014-02-11 15:19:01.043";"3";;;;;;;;;;;;;;;;;;;;;
"gfg";;;"Windows 7";"Rachels Experiment";"1.0";"1";"1";"1";"1";"1";"1";"2014-02-11 15:17:15.553";"2014-02-11 15:19:52.227";"1";"1";"0";"0";"1";"33";"32";"module.training_block1.exec-4023.GoNoGo1";"1250";"2014-02-11 15:19:04.812";"10";"1";"FINISHED";"NONE";"failure";"0";"0";"2014-02-11 15:19:03.562";"2";;;;;;;;;;;;;;;;;;;;;
"gfg";;;"Windows 7";"Rachels Experiment";"1.0";"1";"1";"1";"1";"1";"1";"2014-02-11 15:17:15.553";"2014-02-11 15:19:52.227";"1";"1";"0";"0";"1";"34";"33";"module.training_block1.exec-4023.GoNoGo1";"1249";"2014-02-11 15:19:07.329";"23";"0";"FINISHED";"NONE";"failure";"0";"0";"2014-02-11 15:19:06.079";"3";;;;;;;;;;;;;;;;;;;;;
"gfg";;;"Windows 7";"Rachels Experiment";"1.0";"1";"1";"1";"1";"1";"1";"2014-02-11 15:17:15.553";"2014-02-11 15:19:52.227";"1";"1";"0";"0";"1";"35";"34";"module.training_block1.exec-4023.GoNoGo1";"1249";"2014-02-11 15:19:09.846";"18";"1";"FINISHED";"NONE";"failure";"0";"0";"2014-02-11 15:19:08.596";"3";;;;;;;;;;;;;;;;;;;;;
"gfg";;;"Windows 7";"Rachels Experiment";"1.0";"1";"1";"1";"1";"1";"1";"2014-02-11 15:17:15.553";"2014-02-11 15:19:52.227";"1";"1";"0";"0";"1";"36";"35";"module.training_block1.exec-4023.GoNoGo1";"1250";"2014-02-11 15:19:12.365";"28";"1";"FINISHED";"NONE";"success";"0";"1";"2014-02-11 15:19:11.115";"3";;;;;;;;;;;;;;;;;;;;;
"gfg";;;"Windows 7";"Rachels Experiment";"1.0";"1";"1";"1";"1";"1";"1";"2014-02-11 15:17:15.553";"2014-02-11 15:19:52.227";"1";"1";"0";"0";"1";"37";"36";"module.training_block1.exec-4023.GoNoGo1";"1249";"2014-02-11 15:19:14.890";"17";"1";"FINISHED";"NONE";"failure";"0";"0";"2014-02-11 15:19:13.640";"2";;;;;;;;;;;;;;;;;;;;;
"gfg";;;"Windows 7";"Rachels Experiment";"1.0";"1";"1";"1";"1";"1";"1";"2014-02-11 15:17:15.553";"2014-02-11 15:19:52.227";"1";"1";"0";"0";"1";"38";"37";"module.training_block1.exec-4023.GoNoGo1";"1249";"2014-02-11 15:19:17.408";"2";"0";"FINISHED";"NONE";"success";"0";"1";"2014-02-11 15:19:16.158";"1";;;;;;;;;;;;;;;;;;;;;
"gfg";;;"Windows 7";"Rachels Experiment";"1.0";"1";"1";"1";"1";"1";"1";"2014-02-11 15:17:15.553";"2014-02-11 15:19:52.227";"1";"1";"0";"0";"1";"39";"38";"module.training_block1.exec-4023.GoNoGo1";"1249";"2014-02-11 15:19:19.928";"22";"0";"FINISHED";"NONE";"failure";"0";"0";"2014-02-11 15:19:18.678";"3";;;;;;;;;;;;;;;;;;;;;
"gfg";;;"Windows 7";"Rachels Experiment";"1.0";"1";"1";"1";"1";"1";"1";"2014-02-11 15:17:15.553";"2014-02-11 15:19:52.227";"1";"1";"0";"0";"1";"40";"39";"module.training_block1.exec-4023.GoNoGo1";"1249";"2014-02-11 15:19:22.455";"3";"1";"FINISHED";"NONE";"success";"0";"1";"2014-02-11 15:19:21.205";"1";;;;;;;;;;;;;;;;;;;;;
"gfg";;;"Windows 7";"Rachels Experiment";"1.0";"1";"1";"1";"1";"1";"1";"2014-02-11 15:17:15.553";"2014-02-11 15:19:52.227";"1";"1";"0";"0";"1";"41";"40";"module.training_block1.exec-4023.GoNoGo1";"1249";"2014-02-11 15:19:24.980";"8";"0";"FINISHED";"NONE";"success";"0";"1";"2014-02-11 15:19:23.730";"1";;;;;;;;;;;;;;;;;;;;;
"gfg";;;"Windows 7";"Rachels Experiment";"1.0";"1";"1";"1";"1";"1";"1";"2014-02-11 15:17:15.553";"2014-02-11 15:19:52.227";"1";"1";"0";"0";"1";"42";"41";"module.training_block1.exec-4023.GoNoGo1";"1249";"2014-02-11 15:19:27.500";"34";"1";"FINISHED";"NONE";"success";"0";"1";"2014-02-11 15:19:26.250";"3";;;;;;;;;;;;;;;;;;;;;
"gfg";;;"Windows 7";"Rachels Experiment";"1.0";"1";"1";"1";"1";"1";"1";"2014-02-11 15:17:15.553";"2014-02-11 15:19:52.227";"1";"1";"0";"0";"1";"43";"42";"module.training_block1.exec-4023.GoNoGo1";"1250";"2014-02-11 15:19:30.025";"32";"1";"FINISHED";"NONE";"success";"0";"1";"2014-02-11 15:19:28.775";"3";;;;;;;;;;;;;;;;;;;;;
"gfg";;;"Windows 7";"Rachels Experiment";"1.0";"1";"1";"1";"1";"1";"1";"2014-02-11 15:17:15.553";"2014-02-11 15:19:52.227";"1";"1";"0";"0";"1";"44";"43";"module.training_block1.exec-4023.GoNoGo1";"1249";"2014-02-11 15:19:32.699";"11";"0";"FINISHED";"NONE";"failure";"0";"0";"2014-02-11 15:19:31.449";"2";;;;;;;;;;;;;;;;;;;;;
"gfg";;;"Windows 7";"Rachels Experiment";"1.0";"1";"1";"1";"1";"1";"1";"2014-02-11 15:17:15.553";"2014-02-11 15:19:52.227";"1";"1";"0";"0";"1";"45";"44";"module.training_block1.exec-4023.GoNoGo1";"1249";"2014-02-11 15:19:35.217";"21";"1";"FINISHED";"NONE";"failure";"0";"0";"2014-02-11 15:19:33.967";"3";;;;;;;;;;;;;;;;;;;;;
"gfg";;;"Windows 7";"Rachels Experiment";"1.0";"1";"1";"1";"1";"1";"1";"2014-02-11 15:17:15.553";"2014-02-11 15:19:52.227";"1";"1";"0";"0";"1";"46";"45";"module.training_block1.exec-4023.GoNoGo1";"1249";"2014-02-11 15:19:37.737";"15";"0";"FINISHED";"NONE";"success";"0";"1";"2014-02-11 15:19:36.487";"2";;;;;;;;;;;;;;;;;;;;;
"gfg";;;"Windows 7";"Rachels Experiment";"1.0";"1";"1";"1";"1";"1";"1";"2014-02-11 15:17:15.553";"2014-02-11 15:19:52.227";"1";"1";"0";"0";"1";"47";"46";"module.training_block1.exec-4023.GoNoGo1";"1249";"2014-02-11 15:19:40.260";"29";"1";"FINISHED";"NONE";"success";"0";"1";"2014-02-11 15:19:39.010";"3";;;;;;;;;;;;;;;;;;;;;
"gfg";;;"Windows 7";"Rachels Experiment";"1.0";"1";"1";"1";"1";"1";"1";"2014-02-11 15:17:15.553";"2014-02-11 15:19:52.227";"1";"1";"0";"0";"1";"48";"47";"module.training_block1.exec-4023.GoNoGo1";"1249";"2014-02-11 15:19:42.780";"6";"1";"FINISHED";"NONE";"success";"0";"1";"2014-02-11 15:19:41.530";"1";;;;;;;;;;;;;;;;;;;;;
"gfg";;;"Windows 7";"Rachels Experiment";"1.0";"1";"1";"1";"1";"1";"1";"2014-02-11 15:17:15.553";"2014-02-11 15:19:52.227";"1";"1";"0";"0";"1";"49";"48";"module.training_block1.exec-4023.GoNoGo1";"1249";"2014-02-11 15:19:45.302";"14";"1";"FINISHED";"NONE";"failure";"0";"0";"2014-02-11 15:19:44.052";"2";;;;;;;;;;;;;;;;;;;;;
"gfg";;;"Windows 7";"Rachels Experiment";"1.0";"1";"1";"1";"1";"1";"1";"2014-02-11 15:17:15.553";"2014-02-11 15:19:52.227";"1";"1";"0";"0";"1";"50";"49";"module.training_block1.exec-4023.GoNoGo1";"1249";"2014-02-11 15:19:47.826";"24";"0";"FINISHED";"NONE";"success";"0";"1";"2014-02-11 15:19:46.576";"3";;;;;;;;;;;;;;;;;;;;;
"gfg";;;"Windows 7";"Rachels Experiment";"1.0";"1";"1";"1";"1";"1";"1";"2014-02-11 15:17:15.553";"2014-02-11 15:19:52.227";"1";"1";"0";"0";"1";"51";"50";"module.training_block1.exec-4023.GoNoGo1";"1249";"2014-02-11 15:19:50.350";"4";"0";"FINISHED";"NONE";"success";"0";"1";"2014-02-11 15:19:49.100";"1";;;;;;;;;;;;;;;;;;;;;
