"user.name";"user.yearOfBirth";"user.sex";"user.osName";"module.name";"module.version";"module.online.subject.code";"module.online.study.id";"module.online.module.nr";"module.online.group.nr";"session.id";"session.index";"session.startTime";"session.endTime";"session.completed";"session.node-7260.conditionType";"session.node-9378.blockOrder";"session.node-9378.IATorder";"session.node-9378.keyOrder";"trial.id";"trial.index";"trial.name";"trial.GoNoGo1.durationTime";"trial.GoNoGo1.endTime";"trial.GoNoGo1.Error Type";"trial.GoNoGo1.icon";"trial.GoNoGo1.location";"trial.GoNoGo1.outcome";"trial.GoNoGo1.response";"trial.GoNoGo1.result";"trial.GoNoGo1.RT";"trial.GoNoGo1.signal";"trial.GoNoGo1.startTime";"trial.GoNoGo1.stimulus type";"trial.GoNoGo2.durationTime";"trial.GoNoGo2.endTime";"trial.GoNoGo2.Error Type";"trial.GoNoGo2.icon";"trial.GoNoGo2.location";"trial.GoNoGo2.outcome";"trial.GoNoGo2.response";"trial.GoNoGo2.result";"trial.GoNoGo2.RT";"trial.GoNoGo2.signal";"trial.GoNoGo2.startTime";"trial.GoNoGo2.stimulus type";"trial.GoNoGo3.durationTime";"trial.GoNoGo3.endTime";"trial.GoNoGo3.Error Type";"trial.GoNoGo3.icon";"trial.GoNoGo3.location";"trial.GoNoGo3.outcome";"trial.GoNoGo3.response";"trial.GoNoGo3.result";"trial.GoNoGo3.RT";"trial.GoNoGo3.signal";"trial.GoNoGo3.startTime";"trial.GoNoGo3.stimulus type";"trial.GoNoGo4.durationTime";"trial.GoNoGo4.endTime";"trial.GoNoGo4.Error Type";"trial.GoNoGo4.icon";"trial.GoNoGo4.location";"trial.GoNoGo4.outcome";"trial.GoNoGo4.response";"trial.GoNoGo4.result";"trial.GoNoGo4.RT";"trial.GoNoGo4.signal";"trial.GoNoGo4.startTime";"trial.GoNoGo4.stimulus type";"trial.GoNoGo_Practice.durationTime";"trial.GoNoGo_Practice.endTime";"trial.GoNoGo_Practice.icon";"trial.GoNoGo_Practice.location";"trial.GoNoGo_Practice.outcome";"trial.GoNoGo_Practice.response";"trial.GoNoGo_Practice.result";"trial.GoNoGo_Practice.RT";"trial.GoNoGo_Practice.signal";"trial.GoNoGo_Practice.startTime";"trial.GoNoGo_Practice.stimulus type";"trial.GoNoGo_Tutorial.durationTime";"trial.GoNoGo_Tutorial.endTime";"trial.GoNoGo_Tutorial.icon";"trial.GoNoGo_Tutorial.location";"trial.GoNoGo_Tutorial.outcome";"trial.GoNoGo_Tutorial.response";"trial.GoNoGo_Tutorial.result";"trial.GoNoGo_Tutorial.RT";"trial.GoNoGo_Tutorial.signal";"trial.GoNoGo_Tutorial.startTime";"trial.IAT_block1.durationTime";"trial.IAT_block1.endTime";"trial.IAT_block1.outcome";"trial.IAT_block1.response";"trial.IAT_block1.result";"trial.IAT_block1.RT";"trial.IAT_block1.startTime";"trial.IAT_block1.Stimfile";"trial.IAT_block1.stimType";"trial.IAT_block1.word";"trial.IAT_block2.durationTime";"trial.IAT_block2.endTime";"trial.IAT_block2.outcome";"trial.IAT_block2.response";"trial.IAT_block2.result";"trial.IAT_block2.RT";"trial.IAT_block2.startTime";"trial.IAT_block2.Stimfile";"trial.IAT_block2.stimType";"trial.IAT_block2.word";"trial.IAT_Practice1.durationTime";"trial.IAT_Practice1.endTime";"trial.IAT_Practice1.outcome";"trial.IAT_Practice1.response";"trial.IAT_Practice1.result";"trial.IAT_Practice1.RT";"trial.IAT_Practice1.startTime";"trial.IAT_Practice1.Stimfile";"trial.IAT_Practice1.stimType";"trial.IAT_Practice1.word";"trial.IAT_practice2.durationTime";"trial.IAT_practice2.endTime";"trial.IAT_practice2.outcome";"trial.IAT_practice2.response";"trial.IAT_practice2.result";"trial.IAT_practice2.RT";"trial.IAT_practice2.startTime";"trial.IAT_practice2.Stimfile";"trial.IAT_practice2.stimType";"trial.IAT_practice2.word"
"natm93";"1993";;"Windows 7";"Rachel's Experiment (SCIAT)";"1.0";"1";"1";"1";"1";"1";"1";"2014-10-06 10:41:29.558";"2014-10-06 10:56:50.407";"1";"1";"0";"1";"1";"1";"0";"module.GoNoGotutorial.exec-7132.GoNoGo_Tutorial";;;;;;;;;;;;;;;;;;;;;;;;;;;;;;;;;;;;;;;;;;;;;;;;;;;;;;;;;;;;"3996";"2014-10-06 10:42:23.049";"leftResponse";"0";"FINISHED";"LEFT";"success";"1750";"0";"2014-10-06 10:42:19.040";;;;;;;;;;;;;;;;;;;;;;;;;;;;;;;;;;;;;;;;
"natm93";"1993";;"Windows 7";"Rachel's Experiment (SCIAT)";"1.0";"1";"1";"1";"1";"1";"1";"2014-10-06 10:41:29.558";"2014-10-06 10:56:50.407";"1";"1";"0";"1";"1";"2";"1";"module.GoNoGotutorial.exec-7132.GoNoGo_Tutorial";;;;;;;;;;;;;;;;;;;;;;;;;;;;;;;;;;;;;;;;;;;;;;;;;;;;;;;;;;;;"4002";"2014-10-06 10:42:28.368";"rightResponse";"1";"FINISHED";"RIGHT";"success";"765";"0";"2014-10-06 10:42:24.359";;;;;;;;;;;;;;;;;;;;;;;;;;;;;;;;;;;;;;;;
"natm93";"1993";;"Windows 7";"Rachel's Experiment (SCIAT)";"1.0";"1";"1";"1";"1";"1";"1";"2014-10-06 10:41:29.558";"2014-10-06 10:56:50.407";"1";"1";"0";"1";"1";"3";"2";"module.GoNoGotutorial.exec-7132.GoNoGo_Tutorial";;;;;;;;;;;;;;;;;;;;;;;;;;;;;;;;;;;;;;;;;;;;;;;;;;;;;;;;;;;;"4002";"2014-10-06 10:42:33.672";"signalResponse";"0";"FINISHED";"NONE";"success";"0";"1";"2014-10-06 10:42:29.663";;;;;;;;;;;;;;;;;;;;;;;;;;;;;;;;;;;;;;;;
"natm93";"1993";;"Windows 7";"Rachel's Experiment (SCIAT)";"1.0";"1";"1";"1";"1";"1";"1";"2014-10-06 10:41:29.558";"2014-10-06 10:56:50.407";"1";"1";"0";"1";"1";"4";"3";"module.GoNoGopractice.exec-5876.GoNoGo_Practice";;;;;;;;;;;;;;;;;;;;;;;;;;;;;;;;;;;;;;;;;;;;;;;;;"1958";"2014-10-06 10:42:41.144";"18";"0";"FINISHED";"LEFT";"success";"552";"0";"2014-10-06 10:42:39.179";"3";;;;;;;;;;;;;;;;;;;;;;;;;;;;;;;;;;;;;;;;;;;;;;;;;;
"natm93";"1993";;"Windows 7";"Rachel's Experiment (SCIAT)";"1.0";"1";"1";"1";"1";"1";"1";"2014-10-06 10:41:29.558";"2014-10-06 10:56:50.407";"1";"1";"0";"1";"1";"5";"4";"module.GoNoGopractice.exec-5876.GoNoGo_Practice";;;;;;;;;;;;;;;;;;;;;;;;;;;;;;;;;;;;;;;;;;;;;;;;;"1959";"2014-10-06 10:42:44.405";"21";"1";"FINISHED";"RIGHT";"success";"341";"0";"2014-10-06 10:42:42.439";"3";;;;;;;;;;;;;;;;;;;;;;;;;;;;;;;;;;;;;;;;;;;;;;;;;;
"natm93";"1993";;"Windows 7";"Rachel's Experiment (SCIAT)";"1.0";"1";"1";"1";"1";"1";"1";"2014-10-06 10:41:29.558";"2014-10-06 10:56:50.407";"1";"1";"0";"1";"1";"6";"5";"module.GoNoGopractice.exec-5876.GoNoGo_Practice";;;;;;;;;;;;;;;;;;;;;;;;;;;;;;;;;;;;;;;;;;;;;;;;;"1958";"2014-10-06 10:42:47.665";"14";"1";"FINISHED";"RIGHT";"failure";"287";"1";"2014-10-06 10:42:45.700";"2";;;;;;;;;;;;;;;;;;;;;;;;;;;;;;;;;;;;;;;;;;;;;;;;;;
"natm93";"1993";;"Windows 7";"Rachel's Experiment (SCIAT)";"1.0";"1";"1";"1";"1";"1";"1";"2014-10-06 10:41:29.558";"2014-10-06 10:56:50.407";"1";"1";"0";"1";"1";"7";"6";"module.GoNoGopractice.exec-5876.GoNoGo_Practice";;;;;;;;;;;;;;;;;;;;;;;;;;;;;;;;;;;;;;;;;;;;;;;;;"1959";"2014-10-06 10:42:50.925";"26";"0";"FINISHED";"LEFT";"success";"508";"0";"2014-10-06 10:42:48.960";"3";;;;;;;;;;;;;;;;;;;;;;;;;;;;;;;;;;;;;;;;;;;;;;;;;;
"natm93";"1993";;"Windows 7";"Rachel's Experiment (SCIAT)";"1.0";"1";"1";"1";"1";"1";"1";"2014-10-06 10:41:29.558";"2014-10-06 10:56:50.407";"1";"1";"0";"1";"1";"8";"7";"module.GoNoGopractice.exec-5876.GoNoGo_Practice";;;;;;;;;;;;;;;;;;;;;;;;;;;;;;;;;;;;;;;;;;;;;;;;;"1959";"2014-10-06 10:42:54.170";"2";"0";"FINISHED";"LEFT";"success";"559";"0";"2014-10-06 10:42:52.205";"1";;;;;;;;;;;;;;;;;;;;;;;;;;;;;;;;;;;;;;;;;;;;;;;;;;
"natm93";"1993";;"Windows 7";"Rachel's Experiment (SCIAT)";"1.0";"1";"1";"1";"1";"1";"1";"2014-10-06 10:41:29.558";"2014-10-06 10:56:50.407";"1";"1";"0";"1";"1";"9";"8";"module.GoNoGopractice.exec-5876.GoNoGo_Practice";;;;;;;;;;;;;;;;;;;;;;;;;;;;;;;;;;;;;;;;;;;;;;;;;"1959";"2014-10-06 10:42:57.415";"30";"0";"FINISHED";"NONE";"success";"0";"1";"2014-10-06 10:42:55.449";"3";;;;;;;;;;;;;;;;;;;;;;;;;;;;;;;;;;;;;;;;;;;;;;;;;;
"natm93";"1993";;"Windows 7";"Rachel's Experiment (SCIAT)";"1.0";"1";"1";"1";"1";"1";"1";"2014-10-06 10:41:29.558";"2014-10-06 10:56:50.407";"1";"1";"0";"1";"1";"10";"9";"module.GoNoGopractice.exec-5876.GoNoGo_Practice";;;;;;;;;;;;;;;;;;;;;;;;;;;;;;;;;;;;;;;;;;;;;;;;;"1953";"2014-10-06 10:43:00.660";"6";"1";"FINISHED";"RIGHT";"failure";"583";"1";"2014-10-06 10:42:58.694";"1";;;;;;;;;;;;;;;;;;;;;;;;;;;;;;;;;;;;;;;;;;;;;;;;;;
"natm93";"1993";;"Windows 7";"Rachel's Experiment (SCIAT)";"1.0";"1";"1";"1";"1";"1";"1";"2014-10-06 10:41:29.558";"2014-10-06 10:56:50.407";"1";"1";"0";"1";"1";"11";"10";"module.GoNoGopractice.exec-5876.GoNoGo_Practice";;;;;;;;;;;;;;;;;;;;;;;;;;;;;;;;;;;;;;;;;;;;;;;;;"1960";"2014-10-06 10:43:03.904";"34";"0";"FINISHED";"LEFT";"success";"545";"0";"2014-10-06 10:43:01.939";"3";;;;;;;;;;;;;;;;;;;;;;;;;;;;;;;;;;;;;;;;;;;;;;;;;;
"natm93";"1993";;"Windows 7";"Rachel's Experiment (SCIAT)";"1.0";"1";"1";"1";"1";"1";"1";"2014-10-06 10:41:29.558";"2014-10-06 10:56:50.407";"1";"1";"0";"1";"1";"12";"11";"module.GoNoGopractice.exec-5876.GoNoGo_Practice";;;;;;;;;;;;;;;;;;;;;;;;;;;;;;;;;;;;;;;;;;;;;;;;;"1959";"2014-10-06 10:43:07.149";"23";"1";"FINISHED";"RIGHT";"success";"676";"0";"2014-10-06 10:43:05.183";"3";;;;;;;;;;;;;;;;;;;;;;;;;;;;;;;;;;;;;;;;;;;;;;;;;;
"natm93";"1993";;"Windows 7";"Rachel's Experiment (SCIAT)";"1.0";"1";"1";"1";"1";"1";"1";"2014-10-06 10:41:29.558";"2014-10-06 10:56:50.407";"1";"1";"0";"1";"1";"13";"12";"module.GoNoGopractice.exec-5876.GoNoGo_Practice";;;;;;;;;;;;;;;;;;;;;;;;;;;;;;;;;;;;;;;;;;;;;;;;;"1959";"2014-10-06 10:43:10.394";"13";"0";"FINISHED";"NONE";"success";"0";"1";"2014-10-06 10:43:08.428";"2";;;;;;;;;;;;;;;;;;;;;;;;;;;;;;;;;;;;;;;;;;;;;;;;;;
"natm93";"1993";;"Windows 7";"Rachel's Experiment (SCIAT)";"1.0";"1";"1";"1";"1";"1";"1";"2014-10-06 10:41:29.558";"2014-10-06 10:56:50.407";"1";"1";"0";"1";"1";"14";"13";"module.GoNoGopractice.exec-5876.GoNoGo_Practice";;;;;;;;;;;;;;;;;;;;;;;;;;;;;;;;;;;;;;;;;;;;;;;;;"1960";"2014-10-06 10:43:13.638";"3";"1";"FINISHED";"RIGHT";"success";"795";"0";"2014-10-06 10:43:11.673";"1";;;;;;;;;;;;;;;;;;;;;;;;;;;;;;;;;;;;;;;;;;;;;;;;;;
"natm93";"1993";;"Windows 7";"Rachel's Experiment (SCIAT)";"1.0";"1";"1";"1";"1";"1";"1";"2014-10-06 10:41:29.558";"2014-10-06 10:56:50.407";"1";"1";"0";"1";"1";"15";"14";"module.GoNoGopractice.exec-5876.GoNoGo_Practice";;;;;;;;;;;;;;;;;;;;;;;;;;;;;;;;;;;;;;;;;;;;;;;;;"1959";"2014-10-06 10:43:16.883";"27";"1";"FINISHED";"NONE";"success";"0";"1";"2014-10-06 10:43:14.918";"3";;;;;;;;;;;;;;;;;;;;;;;;;;;;;;;;;;;;;;;;;;;;;;;;;;
"natm93";"1993";;"Windows 7";"Rachel's Experiment (SCIAT)";"1.0";"1";"1";"1";"1";"1";"1";"2014-10-06 10:41:29.558";"2014-10-06 10:56:50.407";"1";"1";"0";"1";"1";"16";"15";"module.training_block1.exec-8794.GoNoGo1";"1256";"2014-10-06 10:43:29.550";"NST_correctLoc";"22";"0";"FINISHED";"LEFT";"success";"434";"0";"2014-10-06 10:43:28.286";"3";;;;;;;;;;;;;;;;;;;;;;;;;;;;;;;;;;;;;;;;;;;;;;;;;;;;;;;;;;;;;;;;;;;;;;;;;;;;;;;;;;;;;;;;;;;;;;;;;
"natm93";"1993";;"Windows 7";"Rachel's Experiment (SCIAT)";"1.0";"1";"1";"1";"1";"1";"1";"2014-10-06 10:41:29.558";"2014-10-06 10:56:50.407";"1";"1";"0";"1";"1";"17";"16";"module.training_block1.exec-8794.GoNoGo1";"1257";"2014-10-06 10:43:32.093";"ST_correctStop";"24";"1";"FINISHED";"NONE";"success";"0";"1";"2014-10-06 10:43:30.829";"3";;;;;;;;;;;;;;;;;;;;;;;;;;;;;;;;;;;;;;;;;;;;;;;;;;;;;;;;;;;;;;;;;;;;;;;;;;;;;;;;;;;;;;;;;;;;;;;;;
"natm93";"1993";;"Windows 7";"Rachel's Experiment (SCIAT)";"1.0";"1";"1";"1";"1";"1";"1";"2014-10-06 10:41:29.558";"2014-10-06 10:56:50.407";"1";"1";"0";"1";"1";"18";"17";"module.training_block1.exec-8794.GoNoGo1";"1261";"2014-10-06 10:43:34.635";"NST_correctLoc";"14";"0";"FINISHED";"LEFT";"success";"474";"0";"2014-10-06 10:43:33.372";"2";;;;;;;;;;;;;;;;;;;;;;;;;;;;;;;;;;;;;;;;;;;;;;;;;;;;;;;;;;;;;;;;;;;;;;;;;;;;;;;;;;;;;;;;;;;;;;;;;
"natm93";"1993";;"Windows 7";"Rachel's Experiment (SCIAT)";"1.0";"1";"1";"1";"1";"1";"1";"2014-10-06 10:41:29.558";"2014-10-06 10:56:50.407";"1";"1";"0";"1";"1";"19";"18";"module.training_block1.exec-8794.GoNoGo1";"1257";"2014-10-06 10:43:37.178";"NST_correctLoc";"32";"1";"FINISHED";"RIGHT";"success";"583";"0";"2014-10-06 10:43:35.915";"3";;;;;;;;;;;;;;;;;;;;;;;;;;;;;;;;;;;;;;;;;;;;;;;;;;;;;;;;;;;;;;;;;;;;;;;;;;;;;;;;;;;;;;;;;;;;;;;;;
"natm93";"1993";;"Windows 7";"Rachel's Experiment (SCIAT)";"1.0";"1";"1";"1";"1";"1";"1";"2014-10-06 10:41:29.558";"2014-10-06 10:56:50.407";"1";"1";"0";"1";"1";"20";"19";"module.training_block1.exec-8794.GoNoGo1";"1257";"2014-10-06 10:43:39.721";"NST_correctLoc";"9";"0";"FINISHED";"LEFT";"success";"601";"0";"2014-10-06 10:43:38.457";"2";;;;;;;;;;;;;;;;;;;;;;;;;;;;;;;;;;;;;;;;;;;;;;;;;;;;;;;;;;;;;;;;;;;;;;;;;;;;;;;;;;;;;;;;;;;;;;;;;
"natm93";"1993";;"Windows 7";"Rachel's Experiment (SCIAT)";"1.0";"1";"1";"1";"1";"1";"1";"2014-10-06 10:41:29.558";"2014-10-06 10:56:50.407";"1";"1";"0";"1";"1";"21";"20";"module.training_block1.exec-8794.GoNoGo1";"1257";"2014-10-06 10:43:42.264";"ST_failedStop";"4";"1";"FINISHED";"RIGHT";"failure";"474";"1";"2014-10-06 10:43:41.000";"1";;;;;;;;;;;;;;;;;;;;;;;;;;;;;;;;;;;;;;;;;;;;;;;;;;;;;;;;;;;;;;;;;;;;;;;;;;;;;;;;;;;;;;;;;;;;;;;;;
"natm93";"1993";;"Windows 7";"Rachel's Experiment (SCIAT)";"1.0";"1";"1";"1";"1";"1";"1";"2014-10-06 10:41:29.558";"2014-10-06 10:56:50.407";"1";"1";"0";"1";"1";"22";"21";"module.training_block1.exec-8794.GoNoGo1";"1257";"2014-10-06 10:43:44.806";"ST_correctStop";"19";"1";"FINISHED";"NONE";"success";"0";"1";"2014-10-06 10:43:43.543";"3";;;;;;;;;;;;;;;;;;;;;;;;;;;;;;;;;;;;;;;;;;;;;;;;;;;;;;;;;;;;;;;;;;;;;;;;;;;;;;;;;;;;;;;;;;;;;;;;;
"natm93";"1993";;"Windows 7";"Rachel's Experiment (SCIAT)";"1.0";"1";"1";"1";"1";"1";"1";"2014-10-06 10:41:29.558";"2014-10-06 10:56:50.407";"1";"1";"0";"1";"1";"23";"22";"module.training_block1.exec-8794.GoNoGo1";"1257";"2014-10-06 10:43:47.458";"ST_correctStop";"3";"1";"FINISHED";"NONE";"success";"0";"1";"2014-10-06 10:43:46.195";"1";;;;;;;;;;;;;;;;;;;;;;;;;;;;;;;;;;;;;;;;;;;;;;;;;;;;;;;;;;;;;;;;;;;;;;;;;;;;;;;;;;;;;;;;;;;;;;;;;
"natm93";"1993";;"Windows 7";"Rachel's Experiment (SCIAT)";"1.0";"1";"1";"1";"1";"1";"1";"2014-10-06 10:41:29.558";"2014-10-06 10:56:50.407";"1";"1";"0";"1";"1";"24";"23";"module.training_block1.exec-8794.GoNoGo1";"1256";"2014-10-06 10:43:50.001";"NST_correctLoc";"13";"0";"FINISHED";"LEFT";"success";"447";"0";"2014-10-06 10:43:48.737";"2";;;;;;;;;;;;;;;;;;;;;;;;;;;;;;;;;;;;;;;;;;;;;;;;;;;;;;;;;;;;;;;;;;;;;;;;;;;;;;;;;;;;;;;;;;;;;;;;;
"natm93";"1993";;"Windows 7";"Rachel's Experiment (SCIAT)";"1.0";"1";"1";"1";"1";"1";"1";"2014-10-06 10:41:29.558";"2014-10-06 10:56:50.407";"1";"1";"0";"1";"1";"25";"24";"module.training_block1.exec-8794.GoNoGo1";"1257";"2014-10-06 10:43:52.544";"NST_correctLoc";"16";"0";"FINISHED";"LEFT";"success";"593";"0";"2014-10-06 10:43:51.280";"2";;;;;;;;;;;;;;;;;;;;;;;;;;;;;;;;;;;;;;;;;;;;;;;;;;;;;;;;;;;;;;;;;;;;;;;;;;;;;;;;;;;;;;;;;;;;;;;;;
"natm93";"1993";;"Windows 7";"Rachel's Experiment (SCIAT)";"1.0";"1";"1";"1";"1";"1";"1";"2014-10-06 10:41:29.558";"2014-10-06 10:56:50.407";"1";"1";"0";"1";"1";"26";"25";"module.training_block1.exec-8794.GoNoGo1";"1257";"2014-10-06 10:43:55.087";"ST_correctStop";"8";"1";"FINISHED";"NONE";"success";"0";"1";"2014-10-06 10:43:53.823";"1";;;;;;;;;;;;;;;;;;;;;;;;;;;;;;;;;;;;;;;;;;;;;;;;;;;;;;;;;;;;;;;;;;;;;;;;;;;;;;;;;;;;;;;;;;;;;;;;;
"natm93";"1993";;"Windows 7";"Rachel's Experiment (SCIAT)";"1.0";"1";"1";"1";"1";"1";"1";"2014-10-06 10:41:29.558";"2014-10-06 10:56:50.407";"1";"1";"0";"1";"1";"27";"26";"module.training_block1.exec-8794.GoNoGo1";"1257";"2014-10-06 10:43:57.629";"ST_correctStop";"25";"0";"FINISHED";"NONE";"success";"0";"1";"2014-10-06 10:43:56.366";"3";;;;;;;;;;;;;;;;;;;;;;;;;;;;;;;;;;;;;;;;;;;;;;;;;;;;;;;;;;;;;;;;;;;;;;;;;;;;;;;;;;;;;;;;;;;;;;;;;
"natm93";"1993";;"Windows 7";"Rachel's Experiment (SCIAT)";"1.0";"1";"1";"1";"1";"1";"1";"2014-10-06 10:41:29.558";"2014-10-06 10:56:50.407";"1";"1";"0";"1";"1";"28";"27";"module.training_block1.exec-8794.GoNoGo1";"1257";"2014-10-06 10:44:00.172";"NST_correctLoc";"21";"0";"FINISHED";"LEFT";"success";"589";"0";"2014-10-06 10:43:58.908";"3";;;;;;;;;;;;;;;;;;;;;;;;;;;;;;;;;;;;;;;;;;;;;;;;;;;;;;;;;;;;;;;;;;;;;;;;;;;;;;;;;;;;;;;;;;;;;;;;;
"natm93";"1993";;"Windows 7";"Rachel's Experiment (SCIAT)";"1.0";"1";"1";"1";"1";"1";"1";"2014-10-06 10:41:29.558";"2014-10-06 10:56:50.407";"1";"1";"0";"1";"1";"29";"28";"module.training_block1.exec-8794.GoNoGo1";"1257";"2014-10-06 10:44:02.715";"ST_correctStop";"23";"1";"FINISHED";"NONE";"success";"0";"1";"2014-10-06 10:44:01.451";"3";;;;;;;;;;;;;;;;;;;;;;;;;;;;;;;;;;;;;;;;;;;;;;;;;;;;;;;;;;;;;;;;;;;;;;;;;;;;;;;;;;;;;;;;;;;;;;;;;
"natm93";"1993";;"Windows 7";"Rachel's Experiment (SCIAT)";"1.0";"1";"1";"1";"1";"1";"1";"2014-10-06 10:41:29.558";"2014-10-06 10:56:50.407";"1";"1";"0";"1";"1";"30";"29";"module.training_block1.exec-8794.GoNoGo1";"1257";"2014-10-06 10:44:05.257";"NST_correctLoc";"10";"0";"FINISHED";"LEFT";"success";"383";"0";"2014-10-06 10:44:03.994";"2";;;;;;;;;;;;;;;;;;;;;;;;;;;;;;;;;;;;;;;;;;;;;;;;;;;;;;;;;;;;;;;;;;;;;;;;;;;;;;;;;;;;;;;;;;;;;;;;;
"natm93";"1993";;"Windows 7";"Rachel's Experiment (SCIAT)";"1.0";"1";"1";"1";"1";"1";"1";"2014-10-06 10:41:29.558";"2014-10-06 10:56:50.407";"1";"1";"0";"1";"1";"31";"30";"module.training_block1.exec-8794.GoNoGo1";"1257";"2014-10-06 10:44:07.800";"ST_correctStop";"30";"1";"FINISHED";"NONE";"success";"0";"1";"2014-10-06 10:44:06.537";"3";;;;;;;;;;;;;;;;;;;;;;;;;;;;;;;;;;;;;;;;;;;;;;;;;;;;;;;;;;;;;;;;;;;;;;;;;;;;;;;;;;;;;;;;;;;;;;;;;
"natm93";"1993";;"Windows 7";"Rachel's Experiment (SCIAT)";"1.0";"1";"1";"1";"1";"1";"1";"2014-10-06 10:41:29.558";"2014-10-06 10:56:50.407";"1";"1";"0";"1";"1";"32";"31";"module.training_block1.exec-8794.GoNoGo1";"1257";"2014-10-06 10:44:10.343";"ST_correctStop";"26";"0";"FINISHED";"NONE";"success";"0";"1";"2014-10-06 10:44:09.079";"3";;;;;;;;;;;;;;;;;;;;;;;;;;;;;;;;;;;;;;;;;;;;;;;;;;;;;;;;;;;;;;;;;;;;;;;;;;;;;;;;;;;;;;;;;;;;;;;;;
"natm93";"1993";;"Windows 7";"Rachel's Experiment (SCIAT)";"1.0";"1";"1";"1";"1";"1";"1";"2014-10-06 10:41:29.558";"2014-10-06 10:56:50.407";"1";"1";"0";"1";"1";"33";"32";"module.training_block1.exec-8794.GoNoGo1";"1258";"2014-10-06 10:44:12.886";"NST_correctLoc";"35";"1";"FINISHED";"RIGHT";"success";"643";"0";"2014-10-06 10:44:11.622";"3";;;;;;;;;;;;;;;;;;;;;;;;;;;;;;;;;;;;;;;;;;;;;;;;;;;;;;;;;;;;;;;;;;;;;;;;;;;;;;;;;;;;;;;;;;;;;;;;;
"natm93";"1993";;"Windows 7";"Rachel's Experiment (SCIAT)";"1.0";"1";"1";"1";"1";"1";"1";"2014-10-06 10:41:29.558";"2014-10-06 10:56:50.407";"1";"1";"0";"1";"1";"34";"33";"module.training_block1.exec-8794.GoNoGo1";"1257";"2014-10-06 10:44:15.428";"ST_correctStop";"1";"0";"FINISHED";"NONE";"success";"0";"1";"2014-10-06 10:44:14.165";"1";;;;;;;;;;;;;;;;;;;;;;;;;;;;;;;;;;;;;;;;;;;;;;;;;;;;;;;;;;;;;;;;;;;;;;;;;;;;;;;;;;;;;;;;;;;;;;;;;
"natm93";"1993";;"Windows 7";"Rachel's Experiment (SCIAT)";"1.0";"1";"1";"1";"1";"1";"1";"2014-10-06 10:41:29.558";"2014-10-06 10:56:50.407";"1";"1";"0";"1";"1";"35";"34";"module.training_block1.exec-8794.GoNoGo1";"1257";"2014-10-06 10:44:17.971";"NST_correctLoc";"31";"1";"FINISHED";"RIGHT";"success";"621";"0";"2014-10-06 10:44:16.708";"3";;;;;;;;;;;;;;;;;;;;;;;;;;;;;;;;;;;;;;;;;;;;;;;;;;;;;;;;;;;;;;;;;;;;;;;;;;;;;;;;;;;;;;;;;;;;;;;;;
"natm93";"1993";;"Windows 7";"Rachel's Experiment (SCIAT)";"1.0";"1";"1";"1";"1";"1";"1";"2014-10-06 10:41:29.558";"2014-10-06 10:56:50.407";"1";"1";"0";"1";"1";"36";"35";"module.training_block1.exec-8794.GoNoGo1";"1256";"2014-10-06 10:44:20.514";"ST_correctStop";"6";"1";"FINISHED";"NONE";"success";"0";"1";"2014-10-06 10:44:19.250";"1";;;;;;;;;;;;;;;;;;;;;;;;;;;;;;;;;;;;;;;;;;;;;;;;;;;;;;;;;;;;;;;;;;;;;;;;;;;;;;;;;;;;;;;;;;;;;;;;;
"natm93";"1993";;"Windows 7";"Rachel's Experiment (SCIAT)";"1.0";"1";"1";"1";"1";"1";"1";"2014-10-06 10:41:29.558";"2014-10-06 10:56:50.407";"1";"1";"0";"1";"1";"37";"36";"module.training_block1.exec-8794.GoNoGo1";"1257";"2014-10-06 10:44:23.057";"ST_correctStop";"2";"0";"FINISHED";"NONE";"success";"0";"1";"2014-10-06 10:44:21.793";"1";;;;;;;;;;;;;;;;;;;;;;;;;;;;;;;;;;;;;;;;;;;;;;;;;;;;;;;;;;;;;;;;;;;;;;;;;;;;;;;;;;;;;;;;;;;;;;;;;
"natm93";"1993";;"Windows 7";"Rachel's Experiment (SCIAT)";"1.0";"1";"1";"1";"1";"1";"1";"2014-10-06 10:41:29.558";"2014-10-06 10:56:50.407";"1";"1";"0";"1";"1";"38";"37";"module.training_block1.exec-8794.GoNoGo1";"1257";"2014-10-06 10:44:25.599";"NST_correctLoc";"27";"0";"FINISHED";"LEFT";"success";"401";"0";"2014-10-06 10:44:24.336";"3";;;;;;;;;;;;;;;;;;;;;;;;;;;;;;;;;;;;;;;;;;;;;;;;;;;;;;;;;;;;;;;;;;;;;;;;;;;;;;;;;;;;;;;;;;;;;;;;;
"natm93";"1993";;"Windows 7";"Rachel's Experiment (SCIAT)";"1.0";"1";"1";"1";"1";"1";"1";"2014-10-06 10:41:29.558";"2014-10-06 10:56:50.407";"1";"1";"0";"1";"1";"39";"38";"module.training_block1.exec-8794.GoNoGo1";"1257";"2014-10-06 10:44:28.142";"ST_correctStop";"5";"1";"FINISHED";"NONE";"success";"0";"1";"2014-10-06 10:44:26.879";"1";;;;;;;;;;;;;;;;;;;;;;;;;;;;;;;;;;;;;;;;;;;;;;;;;;;;;;;;;;;;;;;;;;;;;;;;;;;;;;;;;;;;;;;;;;;;;;;;;
"natm93";"1993";;"Windows 7";"Rachel's Experiment (SCIAT)";"1.0";"1";"1";"1";"1";"1";"1";"2014-10-06 10:41:29.558";"2014-10-06 10:56:50.407";"1";"1";"0";"1";"1";"40";"39";"module.training_block1.exec-8794.GoNoGo1";"1257";"2014-10-06 10:44:30.685";"NST_correctLoc";"33";"1";"FINISHED";"RIGHT";"success";"715";"0";"2014-10-06 10:44:29.421";"3";;;;;;;;;;;;;;;;;;;;;;;;;;;;;;;;;;;;;;;;;;;;;;;;;;;;;;;;;;;;;;;;;;;;;;;;;;;;;;;;;;;;;;;;;;;;;;;;;
"natm93";"1993";;"Windows 7";"Rachel's Experiment (SCIAT)";"1.0";"1";"1";"1";"1";"1";"1";"2014-10-06 10:41:29.558";"2014-10-06 10:56:50.407";"1";"1";"0";"1";"1";"41";"40";"module.training_block1.exec-8794.GoNoGo1";"1257";"2014-10-06 10:44:33.228";"ST_correctStop";"28";"1";"FINISHED";"NONE";"success";"0";"1";"2014-10-06 10:44:31.964";"3";;;;;;;;;;;;;;;;;;;;;;;;;;;;;;;;;;;;;;;;;;;;;;;;;;;;;;;;;;;;;;;;;;;;;;;;;;;;;;;;;;;;;;;;;;;;;;;;;
"natm93";"1993";;"Windows 7";"Rachel's Experiment (SCIAT)";"1.0";"1";"1";"1";"1";"1";"1";"2014-10-06 10:41:29.558";"2014-10-06 10:56:50.407";"1";"1";"0";"1";"1";"42";"41";"module.training_block1.exec-8794.GoNoGo1";"1257";"2014-10-06 10:44:35.770";"NST_correctLoc";"17";"0";"FINISHED";"LEFT";"success";"397";"0";"2014-10-06 10:44:34.507";"2";;;;;;;;;;;;;;;;;;;;;;;;;;;;;;;;;;;;;;;;;;;;;;;;;;;;;;;;;;;;;;;;;;;;;;;;;;;;;;;;;;;;;;;;;;;;;;;;;
"natm93";"1993";;"Windows 7";"Rachel's Experiment (SCIAT)";"1.0";"1";"1";"1";"1";"1";"1";"2014-10-06 10:41:29.558";"2014-10-06 10:56:50.407";"1";"1";"0";"1";"1";"43";"42";"module.training_block1.exec-8794.GoNoGo1";"1257";"2014-10-06 10:44:38.313";"NST_correctLoc";"11";"1";"FINISHED";"RIGHT";"success";"647";"0";"2014-10-06 10:44:37.049";"2";;;;;;;;;;;;;;;;;;;;;;;;;;;;;;;;;;;;;;;;;;;;;;;;;;;;;;;;;;;;;;;;;;;;;;;;;;;;;;;;;;;;;;;;;;;;;;;;;
"natm93";"1993";;"Windows 7";"Rachel's Experiment (SCIAT)";"1.0";"1";"1";"1";"1";"1";"1";"2014-10-06 10:41:29.558";"2014-10-06 10:56:50.407";"1";"1";"0";"1";"1";"44";"43";"module.training_block1.exec-8794.GoNoGo1";"1257";"2014-10-06 10:44:40.856";"ST_correctStop";"7";"1";"FINISHED";"NONE";"success";"0";"1";"2014-10-06 10:44:39.592";"1";;;;;;;;;;;;;;;;;;;;;;;;;;;;;;;;;;;;;;;;;;;;;;;;;;;;;;;;;;;;;;;;;;;;;;;;;;;;;;;;;;;;;;;;;;;;;;;;;
"natm93";"1993";;"Windows 7";"Rachel's Experiment (SCIAT)";"1.0";"1";"1";"1";"1";"1";"1";"2014-10-06 10:41:29.558";"2014-10-06 10:56:50.407";"1";"1";"0";"1";"1";"45";"44";"module.training_block1.exec-8794.GoNoGo1";"1257";"2014-10-06 10:44:43.398";"NST_correctLoc";"20";"1";"FINISHED";"RIGHT";"success";"377";"0";"2014-10-06 10:44:42.135";"3";;;;;;;;;;;;;;;;;;;;;;;;;;;;;;;;;;;;;;;;;;;;;;;;;;;;;;;;;;;;;;;;;;;;;;;;;;;;;;;;;;;;;;;;;;;;;;;;;
"natm93";"1993";;"Windows 7";"Rachel's Experiment (SCIAT)";"1.0";"1";"1";"1";"1";"1";"1";"2014-10-06 10:41:29.558";"2014-10-06 10:56:50.407";"1";"1";"0";"1";"1";"46";"45";"module.training_block1.exec-8794.GoNoGo1";"1258";"2014-10-06 10:44:45.941";"NST_correctLoc";"12";"0";"FINISHED";"LEFT";"success";"611";"0";"2014-10-06 10:44:44.678";"2";;;;;;;;;;;;;;;;;;;;;;;;;;;;;;;;;;;;;;;;;;;;;;;;;;;;;;;;;;;;;;;;;;;;;;;;;;;;;;;;;;;;;;;;;;;;;;;;;
"natm93";"1993";;"Windows 7";"Rachel's Experiment (SCIAT)";"1.0";"1";"1";"1";"1";"1";"1";"2014-10-06 10:41:29.558";"2014-10-06 10:56:50.407";"1";"1";"0";"1";"1";"47";"46";"module.training_block1.exec-8794.GoNoGo1";"1257";"2014-10-06 10:44:48.484";"NST_correctLoc";"29";"1";"FINISHED";"RIGHT";"success";"532";"0";"2014-10-06 10:44:47.220";"3";;;;;;;;;;;;;;;;;;;;;;;;;;;;;;;;;;;;;;;;;;;;;;;;;;;;;;;;;;;;;;;;;;;;;;;;;;;;;;;;;;;;;;;;;;;;;;;;;
"natm93";"1993";;"Windows 7";"Rachel's Experiment (SCIAT)";"1.0";"1";"1";"1";"1";"1";"1";"2014-10-06 10:41:29.558";"2014-10-06 10:56:50.407";"1";"1";"0";"1";"1";"48";"47";"module.training_block1.exec-8794.GoNoGo1";"1256";"2014-10-06 10:44:51.027";"NST_correctLoc";"15";"0";"FINISHED";"LEFT";"success";"363";"0";"2014-10-06 10:44:49.763";"2";;;;;;;;;;;;;;;;;;;;;;;;;;;;;;;;;;;;;;;;;;;;;;;;;;;;;;;;;;;;;;;;;;;;;;;;;;;;;;;;;;;;;;;;;;;;;;;;;
"natm93";"1993";;"Windows 7";"Rachel's Experiment (SCIAT)";"1.0";"1";"1";"1";"1";"1";"1";"2014-10-06 10:41:29.558";"2014-10-06 10:56:50.407";"1";"1";"0";"1";"1";"49";"48";"module.training_block1.exec-8794.GoNoGo1";"1257";"2014-10-06 10:44:53.569";"ST_correctStop";"0";"1";"FINISHED";"NONE";"success";"0";"1";"2014-10-06 10:44:52.306";"1";;;;;;;;;;;;;;;;;;;;;;;;;;;;;;;;;;;;;;;;;;;;;;;;;;;;;;;;;;;;;;;;;;;;;;;;;;;;;;;;;;;;;;;;;;;;;;;;;
"natm93";"1993";;"Windows 7";"Rachel's Experiment (SCIAT)";"1.0";"1";"1";"1";"1";"1";"1";"2014-10-06 10:41:29.558";"2014-10-06 10:56:50.407";"1";"1";"0";"1";"1";"50";"49";"module.training_block1.exec-8794.GoNoGo1";"1258";"2014-10-06 10:44:56.112";"ST_correctStop";"34";"0";"FINISHED";"NONE";"success";"0";"1";"2014-10-06 10:44:54.849";"3";;;;;;;;;;;;;;;;;;;;;;;;;;;;;;;;;;;;;;;;;;;;;;;;;;;;;;;;;;;;;;;;;;;;;;;;;;;;;;;;;;;;;;;;;;;;;;;;;
"natm93";"1993";;"Windows 7";"Rachel's Experiment (SCIAT)";"1.0";"1";"1";"1";"1";"1";"1";"2014-10-06 10:41:29.558";"2014-10-06 10:56:50.407";"1";"1";"0";"1";"1";"51";"50";"module.training_block1.exec-8794.GoNoGo1";"1258";"2014-10-06 10:44:58.655";"ST_failedStop";"18";"1";"FINISHED";"RIGHT";"failure";"672";"1";"2014-10-06 10:44:57.391";"3";;;;;;;;;;;;;;;;;;;;;;;;;;;;;;;;;;;;;;;;;;;;;;;;;;;;;;;;;;;;;;;;;;;;;;;;;;;;;;;;;;;;;;;;;;;;;;;;;
"natm93";"1993";;"Windows 7";"Rachel's Experiment (SCIAT)";"1.0";"1";"1";"1";"1";"1";"1";"2014-10-06 10:41:29.558";"2014-10-06 10:56:50.407";"1";"1";"0";"1";"1";"52";"51";"module.training_block2.exec-6727.GoNoGo2";;;;;;;;;;;;;"1261";"2014-10-06 10:45:09.887";"ST_correctStop";"26";"0";"FINISHED";"NONE";"success";"0";"1";"2014-10-06 10:45:08.623";"3";;;;;;;;;;;;;;;;;;;;;;;;;;;;;;;;;;;;;;;;;;;;;;;;;;;;;;;;;;;;;;;;;;;;;;;;;;;;;;;;;;;;;
"natm93";"1993";;"Windows 7";"Rachel's Experiment (SCIAT)";"1.0";"1";"1";"1";"1";"1";"1";"2014-10-06 10:41:29.558";"2014-10-06 10:56:50.407";"1";"1";"0";"1";"1";"53";"52";"module.training_block2.exec-6727.GoNoGo2";;;;;;;;;;;;;"1261";"2014-10-06 10:45:12.429";"ST_correctStop";"3";"1";"FINISHED";"NONE";"success";"0";"1";"2014-10-06 10:45:11.166";"1";;;;;;;;;;;;;;;;;;;;;;;;;;;;;;;;;;;;;;;;;;;;;;;;;;;;;;;;;;;;;;;;;;;;;;;;;;;;;;;;;;;;;
"natm93";"1993";;"Windows 7";"Rachel's Experiment (SCIAT)";"1.0";"1";"1";"1";"1";"1";"1";"2014-10-06 10:41:29.558";"2014-10-06 10:56:50.407";"1";"1";"0";"1";"1";"54";"53";"module.training_block2.exec-6727.GoNoGo2";;;;;;;;;;;;;"1261";"2014-10-06 10:45:14.972";"NST_correctLoc";"15";"1";"FINISHED";"RIGHT";"success";"406";"0";"2014-10-06 10:45:13.709";"2";;;;;;;;;;;;;;;;;;;;;;;;;;;;;;;;;;;;;;;;;;;;;;;;;;;;;;;;;;;;;;;;;;;;;;;;;;;;;;;;;;;;;
"natm93";"1993";;"Windows 7";"Rachel's Experiment (SCIAT)";"1.0";"1";"1";"1";"1";"1";"1";"2014-10-06 10:41:29.558";"2014-10-06 10:56:50.407";"1";"1";"0";"1";"1";"55";"54";"module.training_block2.exec-6727.GoNoGo2";;;;;;;;;;;;;"1256";"2014-10-06 10:45:17.515";"ST_correctStop";"4";"0";"FINISHED";"NONE";"success";"0";"1";"2014-10-06 10:45:16.251";"1";;;;;;;;;;;;;;;;;;;;;;;;;;;;;;;;;;;;;;;;;;;;;;;;;;;;;;;;;;;;;;;;;;;;;;;;;;;;;;;;;;;;;
"natm93";"1993";;"Windows 7";"Rachel's Experiment (SCIAT)";"1.0";"1";"1";"1";"1";"1";"1";"2014-10-06 10:41:29.558";"2014-10-06 10:56:50.407";"1";"1";"0";"1";"1";"56";"55";"module.training_block2.exec-6727.GoNoGo2";;;;;;;;;;;;;"1261";"2014-10-06 10:45:20.058";"NST_correctLoc";"16";"0";"FINISHED";"LEFT";"success";"529";"0";"2014-10-06 10:45:18.794";"2";;;;;;;;;;;;;;;;;;;;;;;;;;;;;;;;;;;;;;;;;;;;;;;;;;;;;;;;;;;;;;;;;;;;;;;;;;;;;;;;;;;;;
"natm93";"1993";;"Windows 7";"Rachel's Experiment (SCIAT)";"1.0";"1";"1";"1";"1";"1";"1";"2014-10-06 10:41:29.558";"2014-10-06 10:56:50.407";"1";"1";"0";"1";"1";"57";"56";"module.training_block2.exec-6727.GoNoGo2";;;;;;;;;;;;;"1256";"2014-10-06 10:45:22.600";"NST_correctLoc";"14";"0";"FINISHED";"LEFT";"success";"605";"0";"2014-10-06 10:45:21.337";"2";;;;;;;;;;;;;;;;;;;;;;;;;;;;;;;;;;;;;;;;;;;;;;;;;;;;;;;;;;;;;;;;;;;;;;;;;;;;;;;;;;;;;
"natm93";"1993";;"Windows 7";"Rachel's Experiment (SCIAT)";"1.0";"1";"1";"1";"1";"1";"1";"2014-10-06 10:41:29.558";"2014-10-06 10:56:50.407";"1";"1";"0";"1";"1";"58";"57";"module.training_block2.exec-6727.GoNoGo2";;;;;;;;;;;;;"1261";"2014-10-06 10:45:25.143";"NST_correctLoc";"30";"0";"FINISHED";"LEFT";"success";"747";"0";"2014-10-06 10:45:23.879";"3";;;;;;;;;;;;;;;;;;;;;;;;;;;;;;;;;;;;;;;;;;;;;;;;;;;;;;;;;;;;;;;;;;;;;;;;;;;;;;;;;;;;;
"natm93";"1993";;"Windows 7";"Rachel's Experiment (SCIAT)";"1.0";"1";"1";"1";"1";"1";"1";"2014-10-06 10:41:29.558";"2014-10-06 10:56:50.407";"1";"1";"0";"1";"1";"59";"58";"module.training_block2.exec-6727.GoNoGo2";;;;;;;;;;;;;"1261";"2014-10-06 10:45:27.686";"ST_correctStop";"2";"1";"FINISHED";"NONE";"success";"0";"1";"2014-10-06 10:45:26.422";"1";;;;;;;;;;;;;;;;;;;;;;;;;;;;;;;;;;;;;;;;;;;;;;;;;;;;;;;;;;;;;;;;;;;;;;;;;;;;;;;;;;;;;
"natm93";"1993";;"Windows 7";"Rachel's Experiment (SCIAT)";"1.0";"1";"1";"1";"1";"1";"1";"2014-10-06 10:41:29.558";"2014-10-06 10:56:50.407";"1";"1";"0";"1";"1";"60";"59";"module.training_block2.exec-6727.GoNoGo2";;;;;;;;;;;;;"1257";"2014-10-06 10:45:30.228";"ST_correctStop";"24";"0";"FINISHED";"NONE";"success";"0";"1";"2014-10-06 10:45:28.965";"3";;;;;;;;;;;;;;;;;;;;;;;;;;;;;;;;;;;;;;;;;;;;;;;;;;;;;;;;;;;;;;;;;;;;;;;;;;;;;;;;;;;;;
"natm93";"1993";;"Windows 7";"Rachel's Experiment (SCIAT)";"1.0";"1";"1";"1";"1";"1";"1";"2014-10-06 10:41:29.558";"2014-10-06 10:56:50.407";"1";"1";"0";"1";"1";"61";"60";"module.training_block2.exec-6727.GoNoGo2";;;;;;;;;;;;;"1257";"2014-10-06 10:45:32.771";"ST_correctStop";"32";"1";"FINISHED";"NONE";"success";"0";"1";"2014-10-06 10:45:31.508";"3";;;;;;;;;;;;;;;;;;;;;;;;;;;;;;;;;;;;;;;;;;;;;;;;;;;;;;;;;;;;;;;;;;;;;;;;;;;;;;;;;;;;;
"natm93";"1993";;"Windows 7";"Rachel's Experiment (SCIAT)";"1.0";"1";"1";"1";"1";"1";"1";"2014-10-06 10:41:29.558";"2014-10-06 10:56:50.407";"1";"1";"0";"1";"1";"62";"61";"module.training_block2.exec-6727.GoNoGo2";;;;;;;;;;;;;"1257";"2014-10-06 10:45:35.314";"NST_correctLoc";"9";"1";"FINISHED";"RIGHT";"success";"404";"0";"2014-10-06 10:45:34.050";"2";;;;;;;;;;;;;;;;;;;;;;;;;;;;;;;;;;;;;;;;;;;;;;;;;;;;;;;;;;;;;;;;;;;;;;;;;;;;;;;;;;;;;
"natm93";"1993";;"Windows 7";"Rachel's Experiment (SCIAT)";"1.0";"1";"1";"1";"1";"1";"1";"2014-10-06 10:41:29.558";"2014-10-06 10:56:50.407";"1";"1";"0";"1";"1";"63";"62";"module.training_block2.exec-6727.GoNoGo2";;;;;;;;;;;;;"1257";"2014-10-06 10:45:37.872";"ST_correctStop";"19";"0";"FINISHED";"NONE";"success";"0";"1";"2014-10-06 10:45:36.609";"3";;;;;;;;;;;;;;;;;;;;;;;;;;;;;;;;;;;;;;;;;;;;;;;;;;;;;;;;;;;;;;;;;;;;;;;;;;;;;;;;;;;;;
"natm93";"1993";;"Windows 7";"Rachel's Experiment (SCIAT)";"1.0";"1";"1";"1";"1";"1";"1";"2014-10-06 10:41:29.558";"2014-10-06 10:56:50.407";"1";"1";"0";"1";"1";"64";"63";"module.training_block2.exec-6727.GoNoGo2";;;;;;;;;;;;;"1261";"2014-10-06 10:45:40.415";"NST_correctLoc";"20";"0";"FINISHED";"LEFT";"success";"443";"0";"2014-10-06 10:45:39.151";"3";;;;;;;;;;;;;;;;;;;;;;;;;;;;;;;;;;;;;;;;;;;;;;;;;;;;;;;;;;;;;;;;;;;;;;;;;;;;;;;;;;;;;
"natm93";"1993";;"Windows 7";"Rachel's Experiment (SCIAT)";"1.0";"1";"1";"1";"1";"1";"1";"2014-10-06 10:41:29.558";"2014-10-06 10:56:50.407";"1";"1";"0";"1";"1";"65";"64";"module.training_block2.exec-6727.GoNoGo2";;;;;;;;;;;;;"1261";"2014-10-06 10:45:42.958";"NST_correctLoc";"10";"1";"FINISHED";"RIGHT";"success";"780";"0";"2014-10-06 10:45:41.694";"2";;;;;;;;;;;;;;;;;;;;;;;;;;;;;;;;;;;;;;;;;;;;;;;;;;;;;;;;;;;;;;;;;;;;;;;;;;;;;;;;;;;;;
"natm93";"1993";;"Windows 7";"Rachel's Experiment (SCIAT)";"1.0";"1";"1";"1";"1";"1";"1";"2014-10-06 10:41:29.558";"2014-10-06 10:56:50.407";"1";"1";"0";"1";"1";"66";"65";"module.training_block2.exec-6727.GoNoGo2";;;;;;;;;;;;;"1261";"2014-10-06 10:45:45.500";"NST_correctLoc";"29";"1";"FINISHED";"RIGHT";"success";"509";"0";"2014-10-06 10:45:44.237";"3";;;;;;;;;;;;;;;;;;;;;;;;;;;;;;;;;;;;;;;;;;;;;;;;;;;;;;;;;;;;;;;;;;;;;;;;;;;;;;;;;;;;;
"natm93";"1993";;"Windows 7";"Rachel's Experiment (SCIAT)";"1.0";"1";"1";"1";"1";"1";"1";"2014-10-06 10:41:29.558";"2014-10-06 10:56:50.407";"1";"1";"0";"1";"1";"67";"66";"module.training_block2.exec-6727.GoNoGo2";;;;;;;;;;;;;"1261";"2014-10-06 10:45:48.043";"NST_correctLoc";"12";"1";"FINISHED";"RIGHT";"success";"542";"0";"2014-10-06 10:45:46.780";"2";;;;;;;;;;;;;;;;;;;;;;;;;;;;;;;;;;;;;;;;;;;;;;;;;;;;;;;;;;;;;;;;;;;;;;;;;;;;;;;;;;;;;
"natm93";"1993";;"Windows 7";"Rachel's Experiment (SCIAT)";"1.0";"1";"1";"1";"1";"1";"1";"2014-10-06 10:41:29.558";"2014-10-06 10:56:50.407";"1";"1";"0";"1";"1";"68";"67";"module.training_block2.exec-6727.GoNoGo2";;;;;;;;;;;;;"1261";"2014-10-06 10:45:50.586";"NST_correctLoc";"27";"0";"FINISHED";"LEFT";"success";"487";"0";"2014-10-06 10:45:49.322";"3";;;;;;;;;;;;;;;;;;;;;;;;;;;;;;;;;;;;;;;;;;;;;;;;;;;;;;;;;;;;;;;;;;;;;;;;;;;;;;;;;;;;;
"natm93";"1993";;"Windows 7";"Rachel's Experiment (SCIAT)";"1.0";"1";"1";"1";"1";"1";"1";"2014-10-06 10:41:29.558";"2014-10-06 10:56:50.407";"1";"1";"0";"1";"1";"69";"68";"module.training_block2.exec-6727.GoNoGo2";;;;;;;;;;;;;"1261";"2014-10-06 10:45:53.129";"ST_correctStop";"33";"1";"FINISHED";"NONE";"success";"0";"1";"2014-10-06 10:45:51.865";"3";;;;;;;;;;;;;;;;;;;;;;;;;;;;;;;;;;;;;;;;;;;;;;;;;;;;;;;;;;;;;;;;;;;;;;;;;;;;;;;;;;;;;
"natm93";"1993";;"Windows 7";"Rachel's Experiment (SCIAT)";"1.0";"1";"1";"1";"1";"1";"1";"2014-10-06 10:41:29.558";"2014-10-06 10:56:50.407";"1";"1";"0";"1";"1";"70";"69";"module.training_block2.exec-6727.GoNoGo2";;;;;;;;;;;;;"1261";"2014-10-06 10:45:55.671";"ST_correctStop";"28";"0";"FINISHED";"NONE";"success";"0";"1";"2014-10-06 10:45:54.408";"3";;;;;;;;;;;;;;;;;;;;;;;;;;;;;;;;;;;;;;;;;;;;;;;;;;;;;;;;;;;;;;;;;;;;;;;;;;;;;;;;;;;;;
"natm93";"1993";;"Windows 7";"Rachel's Experiment (SCIAT)";"1.0";"1";"1";"1";"1";"1";"1";"2014-10-06 10:41:29.558";"2014-10-06 10:56:50.407";"1";"1";"0";"1";"1";"71";"70";"module.training_block2.exec-6727.GoNoGo2";;;;;;;;;;;;;"1261";"2014-10-06 10:45:58.214";"ST_correctStop";"35";"0";"FINISHED";"NONE";"success";"0";"1";"2014-10-06 10:45:56.951";"3";;;;;;;;;;;;;;;;;;;;;;;;;;;;;;;;;;;;;;;;;;;;;;;;;;;;;;;;;;;;;;;;;;;;;;;;;;;;;;;;;;;;;
"natm93";"1993";;"Windows 7";"Rachel's Experiment (SCIAT)";"1.0";"1";"1";"1";"1";"1";"1";"2014-10-06 10:41:29.558";"2014-10-06 10:56:50.407";"1";"1";"0";"1";"1";"72";"71";"module.training_block2.exec-6727.GoNoGo2";;;;;;;;;;;;;"1256";"2014-10-06 10:46:00.757";"NST_correctLoc";"22";"1";"FINISHED";"RIGHT";"success";"447";"0";"2014-10-06 10:45:59.493";"3";;;;;;;;;;;;;;;;;;;;;;;;;;;;;;;;;;;;;;;;;;;;;;;;;;;;;;;;;;;;;;;;;;;;;;;;;;;;;;;;;;;;;
"natm93";"1993";;"Windows 7";"Rachel's Experiment (SCIAT)";"1.0";"1";"1";"1";"1";"1";"1";"2014-10-06 10:41:29.558";"2014-10-06 10:56:50.407";"1";"1";"0";"1";"1";"73";"72";"module.training_block2.exec-6727.GoNoGo2";;;;;;;;;;;;;"1261";"2014-10-06 10:46:03.300";"NST_correctLoc";"25";"0";"FINISHED";"LEFT";"success";"605";"0";"2014-10-06 10:46:02.036";"3";;;;;;;;;;;;;;;;;;;;;;;;;;;;;;;;;;;;;;;;;;;;;;;;;;;;;;;;;;;;;;;;;;;;;;;;;;;;;;;;;;;;;
"natm93";"1993";;"Windows 7";"Rachel's Experiment (SCIAT)";"1.0";"1";"1";"1";"1";"1";"1";"2014-10-06 10:41:29.558";"2014-10-06 10:56:50.407";"1";"1";"0";"1";"1";"74";"73";"module.training_block2.exec-6727.GoNoGo2";;;;;;;;;;;;;"1261";"2014-10-06 10:46:05.842";"NST_correctLoc";"17";"1";"FINISHED";"RIGHT";"success";"590";"0";"2014-10-06 10:46:04.579";"2";;;;;;;;;;;;;;;;;;;;;;;;;;;;;;;;;;;;;;;;;;;;;;;;;;;;;;;;;;;;;;;;;;;;;;;;;;;;;;;;;;;;;
"natm93";"1993";;"Windows 7";"Rachel's Experiment (SCIAT)";"1.0";"1";"1";"1";"1";"1";"1";"2014-10-06 10:41:29.558";"2014-10-06 10:56:50.407";"1";"1";"0";"1";"1";"75";"74";"module.training_block2.exec-6727.GoNoGo2";;;;;;;;;;;;;"1261";"2014-10-06 10:46:08.385";"ST_correctStop";"1";"0";"FINISHED";"NONE";"success";"0";"1";"2014-10-06 10:46:07.122";"1";;;;;;;;;;;;;;;;;;;;;;;;;;;;;;;;;;;;;;;;;;;;;;;;;;;;;;;;;;;;;;;;;;;;;;;;;;;;;;;;;;;;;
"natm93";"1993";;"Windows 7";"Rachel's Experiment (SCIAT)";"1.0";"1";"1";"1";"1";"1";"1";"2014-10-06 10:41:29.558";"2014-10-06 10:56:50.407";"1";"1";"0";"1";"1";"76";"75";"module.training_block2.exec-6727.GoNoGo2";;;;;;;;;;;;;"1261";"2014-10-06 10:46:10.928";"NST_correctLoc";"21";"1";"FINISHED";"RIGHT";"success";"345";"0";"2014-10-06 10:46:09.664";"3";;;;;;;;;;;;;;;;;;;;;;;;;;;;;;;;;;;;;;;;;;;;;;;;;;;;;;;;;;;;;;;;;;;;;;;;;;;;;;;;;;;;;
"natm93";"1993";;"Windows 7";"Rachel's Experiment (SCIAT)";"1.0";"1";"1";"1";"1";"1";"1";"2014-10-06 10:41:29.558";"2014-10-06 10:56:50.407";"1";"1";"0";"1";"1";"77";"76";"module.training_block2.exec-6727.GoNoGo2";;;;;;;;;;;;;"1261";"2014-10-06 10:46:13.471";"ST_correctStop";"7";"0";"FINISHED";"NONE";"success";"0";"1";"2014-10-06 10:46:12.207";"1";;;;;;;;;;;;;;;;;;;;;;;;;;;;;;;;;;;;;;;;;;;;;;;;;;;;;;;;;;;;;;;;;;;;;;;;;;;;;;;;;;;;;
"natm93";"1993";;"Windows 7";"Rachel's Experiment (SCIAT)";"1.0";"1";"1";"1";"1";"1";"1";"2014-10-06 10:41:29.558";"2014-10-06 10:56:50.407";"1";"1";"0";"1";"1";"78";"77";"module.training_block2.exec-6727.GoNoGo2";;;;;;;;;;;;;"1261";"2014-10-06 10:46:16.013";"ST_correctStop";"5";"0";"FINISHED";"NONE";"success";"0";"1";"2014-10-06 10:46:14.750";"1";;;;;;;;;;;;;;;;;;;;;;;;;;;;;;;;;;;;;;;;;;;;;;;;;;;;;;;;;;;;;;;;;;;;;;;;;;;;;;;;;;;;;
"natm93";"1993";;"Windows 7";"Rachel's Experiment (SCIAT)";"1.0";"1";"1";"1";"1";"1";"1";"2014-10-06 10:41:29.558";"2014-10-06 10:56:50.407";"1";"1";"0";"1";"1";"79";"78";"module.training_block2.exec-6727.GoNoGo2";;;;;;;;;;;;;"1261";"2014-10-06 10:46:18.556";"ST_correctStop";"18";"1";"FINISHED";"NONE";"success";"0";"1";"2014-10-06 10:46:17.292";"3";;;;;;;;;;;;;;;;;;;;;;;;;;;;;;;;;;;;;;;;;;;;;;;;;;;;;;;;;;;;;;;;;;;;;;;;;;;;;;;;;;;;;
"natm93";"1993";;"Windows 7";"Rachel's Experiment (SCIAT)";"1.0";"1";"1";"1";"1";"1";"1";"2014-10-06 10:41:29.558";"2014-10-06 10:56:50.407";"1";"1";"0";"1";"1";"80";"79";"module.training_block2.exec-6727.GoNoGo2";;;;;;;;;;;;;"1261";"2014-10-06 10:46:21.099";"NST_correctLoc";"11";"0";"FINISHED";"LEFT";"success";"437";"0";"2014-10-06 10:46:19.835";"2";;;;;;;;;;;;;;;;;;;;;;;;;;;;;;;;;;;;;;;;;;;;;;;;;;;;;;;;;;;;;;;;;;;;;;;;;;;;;;;;;;;;;
"natm93";"1993";;"Windows 7";"Rachel's Experiment (SCIAT)";"1.0";"1";"1";"1";"1";"1";"1";"2014-10-06 10:41:29.558";"2014-10-06 10:56:50.407";"1";"1";"0";"1";"1";"81";"80";"module.training_block2.exec-6727.GoNoGo2";;;;;;;;;;;;;"1261";"2014-10-06 10:46:23.657";"ST_correctStop";"6";"1";"FINISHED";"NONE";"success";"0";"1";"2014-10-06 10:46:22.394";"1";;;;;;;;;;;;;;;;;;;;;;;;;;;;;;;;;;;;;;;;;;;;;;;;;;;;;;;;;;;;;;;;;;;;;;;;;;;;;;;;;;;;;
"natm93";"1993";;"Windows 7";"Rachel's Experiment (SCIAT)";"1.0";"1";"1";"1";"1";"1";"1";"2014-10-06 10:41:29.558";"2014-10-06 10:56:50.407";"1";"1";"0";"1";"1";"82";"81";"module.training_block2.exec-6727.GoNoGo2";;;;;;;;;;;;;"1261";"2014-10-06 10:46:26.200";"ST_correctStop";"0";"1";"FINISHED";"NONE";"success";"0";"1";"2014-10-06 10:46:24.936";"1";;;;;;;;;;;;;;;;;;;;;;;;;;;;;;;;;;;;;;;;;;;;;;;;;;;;;;;;;;;;;;;;;;;;;;;;;;;;;;;;;;;;;
"natm93";"1993";;"Windows 7";"Rachel's Experiment (SCIAT)";"1.0";"1";"1";"1";"1";"1";"1";"2014-10-06 10:41:29.558";"2014-10-06 10:56:50.407";"1";"1";"0";"1";"1";"83";"82";"module.training_block2.exec-6727.GoNoGo2";;;;;;;;;;;;;"1261";"2014-10-06 10:46:28.743";"NST_correctLoc";"23";"0";"FINISHED";"LEFT";"success";"601";"0";"2014-10-06 10:46:27.479";"3";;;;;;;;;;;;;;;;;;;;;;;;;;;;;;;;;;;;;;;;;;;;;;;;;;;;;;;;;;;;;;;;;;;;;;;;;;;;;;;;;;;;;
"natm93";"1993";;"Windows 7";"Rachel's Experiment (SCIAT)";"1.0";"1";"1";"1";"1";"1";"1";"2014-10-06 10:41:29.558";"2014-10-06 10:56:50.407";"1";"1";"0";"1";"1";"84";"83";"module.training_block2.exec-6727.GoNoGo2";;;;;;;;;;;;;"1261";"2014-10-06 10:46:31.285";"NST_correctLoc";"31";"1";"FINISHED";"RIGHT";"success";"555";"0";"2014-10-06 10:46:30.022";"3";;;;;;;;;;;;;;;;;;;;;;;;;;;;;;;;;;;;;;;;;;;;;;;;;;;;;;;;;;;;;;;;;;;;;;;;;;;;;;;;;;;;;
"natm93";"1993";;"Windows 7";"Rachel's Experiment (SCIAT)";"1.0";"1";"1";"1";"1";"1";"1";"2014-10-06 10:41:29.558";"2014-10-06 10:56:50.407";"1";"1";"0";"1";"1";"85";"84";"module.training_block2.exec-6727.GoNoGo2";;;;;;;;;;;;;"1261";"2014-10-06 10:46:33.828";"NST_correctLoc";"13";"1";"FINISHED";"RIGHT";"success";"564";"0";"2014-10-06 10:46:32.564";"2";;;;;;;;;;;;;;;;;;;;;;;;;;;;;;;;;;;;;;;;;;;;;;;;;;;;;;;;;;;;;;;;;;;;;;;;;;;;;;;;;;;;;
"natm93";"1993";;"Windows 7";"Rachel's Experiment (SCIAT)";"1.0";"1";"1";"1";"1";"1";"1";"2014-10-06 10:41:29.558";"2014-10-06 10:56:50.407";"1";"1";"0";"1";"1";"86";"85";"module.training_block2.exec-6727.GoNoGo2";;;;;;;;;;;;;"1261";"2014-10-06 10:46:36.371";"ST_correctStop";"8";"0";"FINISHED";"NONE";"success";"0";"1";"2014-10-06 10:46:35.107";"1";;;;;;;;;;;;;;;;;;;;;;;;;;;;;;;;;;;;;;;;;;;;;;;;;;;;;;;;;;;;;;;;;;;;;;;;;;;;;;;;;;;;;
"natm93";"1993";;"Windows 7";"Rachel's Experiment (SCIAT)";"1.0";"1";"1";"1";"1";"1";"1";"2014-10-06 10:41:29.558";"2014-10-06 10:56:50.407";"1";"1";"0";"1";"1";"87";"86";"module.training_block2.exec-6727.GoNoGo2";;;;;;;;;;;;;"1261";"2014-10-06 10:46:38.914";"ST_correctStop";"34";"1";"FINISHED";"NONE";"success";"0";"1";"2014-10-06 10:46:37.650";"3";;;;;;;;;;;;;;;;;;;;;;;;;;;;;;;;;;;;;;;;;;;;;;;;;;;;;;;;;;;;;;;;;;;;;;;;;;;;;;;;;;;;;
"natm93";"1993";;"Windows 7";"Rachel's Experiment (SCIAT)";"1.0";"1";"1";"1";"1";"1";"1";"2014-10-06 10:41:29.558";"2014-10-06 10:56:50.407";"1";"1";"0";"1";"1";"88";"87";"module.training_block3.exec-7676.GoNoGo3";;;;;;;;;;;;;;;;;;;;;;;;;"1261";"2014-10-06 10:46:55.356";"ST_correctStop";"32";"1";"FINISHED";"NONE";"success";"0";"1";"2014-10-06 10:46:54.092";"3";;;;;;;;;;;;;;;;;;;;;;;;;;;;;;;;;;;;;;;;;;;;;;;;;;;;;;;;;;;;;;;;;;;;;;;;;
"natm93";"1993";;"Windows 7";"Rachel's Experiment (SCIAT)";"1.0";"1";"1";"1";"1";"1";"1";"2014-10-06 10:41:29.558";"2014-10-06 10:56:50.407";"1";"1";"0";"1";"1";"89";"88";"module.training_block3.exec-7676.GoNoGo3";;;;;;;;;;;;;;;;;;;;;;;;;"1261";"2014-10-06 10:46:57.898";"ST_correctStop";"1";"0";"FINISHED";"NONE";"success";"0";"1";"2014-10-06 10:46:56.635";"1";;;;;;;;;;;;;;;;;;;;;;;;;;;;;;;;;;;;;;;;;;;;;;;;;;;;;;;;;;;;;;;;;;;;;;;;;
"natm93";"1993";;"Windows 7";"Rachel's Experiment (SCIAT)";"1.0";"1";"1";"1";"1";"1";"1";"2014-10-06 10:41:29.558";"2014-10-06 10:56:50.407";"1";"1";"0";"1";"1";"90";"89";"module.training_block3.exec-7676.GoNoGo3";;;;;;;;;;;;;;;;;;;;;;;;;"1261";"2014-10-06 10:47:00.441";"ST_correctStop";"35";"0";"FINISHED";"NONE";"success";"0";"1";"2014-10-06 10:46:59.177";"3";;;;;;;;;;;;;;;;;;;;;;;;;;;;;;;;;;;;;;;;;;;;;;;;;;;;;;;;;;;;;;;;;;;;;;;;;
"natm93";"1993";;"Windows 7";"Rachel's Experiment (SCIAT)";"1.0";"1";"1";"1";"1";"1";"1";"2014-10-06 10:41:29.558";"2014-10-06 10:56:50.407";"1";"1";"0";"1";"1";"91";"90";"module.training_block3.exec-7676.GoNoGo3";;;;;;;;;;;;;;;;;;;;;;;;;"1261";"2014-10-06 10:47:02.984";"ST_correctStop";"20";"1";"FINISHED";"NONE";"success";"0";"1";"2014-10-06 10:47:01.720";"3";;;;;;;;;;;;;;;;;;;;;;;;;;;;;;;;;;;;;;;;;;;;;;;;;;;;;;;;;;;;;;;;;;;;;;;;;
"natm93";"1993";;"Windows 7";"Rachel's Experiment (SCIAT)";"1.0";"1";"1";"1";"1";"1";"1";"2014-10-06 10:41:29.558";"2014-10-06 10:56:50.407";"1";"1";"0";"1";"1";"92";"91";"module.training_block3.exec-7676.GoNoGo3";;;;;;;;;;;;;;;;;;;;;;;;;"1261";"2014-10-06 10:47:05.526";"ST_correctStop";"0";"1";"FINISHED";"NONE";"success";"0";"1";"2014-10-06 10:47:04.263";"1";;;;;;;;;;;;;;;;;;;;;;;;;;;;;;;;;;;;;;;;;;;;;;;;;;;;;;;;;;;;;;;;;;;;;;;;;
"natm93";"1993";;"Windows 7";"Rachel's Experiment (SCIAT)";"1.0";"1";"1";"1";"1";"1";"1";"2014-10-06 10:41:29.558";"2014-10-06 10:56:50.407";"1";"1";"0";"1";"1";"93";"92";"module.training_block3.exec-7676.GoNoGo3";;;;;;;;;;;;;;;;;;;;;;;;;"1261";"2014-10-06 10:47:08.069";"NST_correctLoc";"12";"1";"FINISHED";"RIGHT";"success";"441";"0";"2014-10-06 10:47:06.806";"2";;;;;;;;;;;;;;;;;;;;;;;;;;;;;;;;;;;;;;;;;;;;;;;;;;;;;;;;;;;;;;;;;;;;;;;;;
"natm93";"1993";;"Windows 7";"Rachel's Experiment (SCIAT)";"1.0";"1";"1";"1";"1";"1";"1";"2014-10-06 10:41:29.558";"2014-10-06 10:56:50.407";"1";"1";"0";"1";"1";"94";"93";"module.training_block3.exec-7676.GoNoGo3";;;;;;;;;;;;;;;;;;;;;;;;;"1261";"2014-10-06 10:47:10.612";"ST_correctStop";"30";"0";"FINISHED";"NONE";"success";"0";"1";"2014-10-06 10:47:09.348";"3";;;;;;;;;;;;;;;;;;;;;;;;;;;;;;;;;;;;;;;;;;;;;;;;;;;;;;;;;;;;;;;;;;;;;;;;;
"natm93";"1993";;"Windows 7";"Rachel's Experiment (SCIAT)";"1.0";"1";"1";"1";"1";"1";"1";"2014-10-06 10:41:29.558";"2014-10-06 10:56:50.407";"1";"1";"0";"1";"1";"95";"94";"module.training_block3.exec-7676.GoNoGo3";;;;;;;;;;;;;;;;;;;;;;;;;"1261";"2014-10-06 10:47:13.155";"NST_correctLoc";"21";"1";"FINISHED";"RIGHT";"success";"444";"0";"2014-10-06 10:47:11.891";"3";;;;;;;;;;;;;;;;;;;;;;;;;;;;;;;;;;;;;;;;;;;;;;;;;;;;;;;;;;;;;;;;;;;;;;;;;
"natm93";"1993";;"Windows 7";"Rachel's Experiment (SCIAT)";"1.0";"1";"1";"1";"1";"1";"1";"2014-10-06 10:41:29.558";"2014-10-06 10:56:50.407";"1";"1";"0";"1";"1";"96";"95";"module.training_block3.exec-7676.GoNoGo3";;;;;;;;;;;;;;;;;;;;;;;;;"1261";"2014-10-06 10:47:15.697";"NST_correctLoc";"10";"0";"FINISHED";"LEFT";"success";"565";"0";"2014-10-06 10:47:14.434";"2";;;;;;;;;;;;;;;;;;;;;;;;;;;;;;;;;;;;;;;;;;;;;;;;;;;;;;;;;;;;;;;;;;;;;;;;;
"natm93";"1993";;"Windows 7";"Rachel's Experiment (SCIAT)";"1.0";"1";"1";"1";"1";"1";"1";"2014-10-06 10:41:29.558";"2014-10-06 10:56:50.407";"1";"1";"0";"1";"1";"97";"96";"module.training_block3.exec-7676.GoNoGo3";;;;;;;;;;;;;;;;;;;;;;;;;"1261";"2014-10-06 10:47:18.240";"NST_correctLoc";"9";"0";"FINISHED";"LEFT";"success";"566";"0";"2014-10-06 10:47:16.977";"2";;;;;;;;;;;;;;;;;;;;;;;;;;;;;;;;;;;;;;;;;;;;;;;;;;;;;;;;;;;;;;;;;;;;;;;;;
"natm93";"1993";;"Windows 7";"Rachel's Experiment (SCIAT)";"1.0";"1";"1";"1";"1";"1";"1";"2014-10-06 10:41:29.558";"2014-10-06 10:56:50.407";"1";"1";"0";"1";"1";"98";"97";"module.training_block3.exec-7676.GoNoGo3";;;;;;;;;;;;;;;;;;;;;;;;;"1261";"2014-10-06 10:47:20.783";"ST_correctStop";"26";"1";"FINISHED";"NONE";"success";"0";"1";"2014-10-06 10:47:19.519";"3";;;;;;;;;;;;;;;;;;;;;;;;;;;;;;;;;;;;;;;;;;;;;;;;;;;;;;;;;;;;;;;;;;;;;;;;;
"natm93";"1993";;"Windows 7";"Rachel's Experiment (SCIAT)";"1.0";"1";"1";"1";"1";"1";"1";"2014-10-06 10:41:29.558";"2014-10-06 10:56:50.407";"1";"1";"0";"1";"1";"99";"98";"module.training_block3.exec-7676.GoNoGo3";;;;;;;;;;;;;;;;;;;;;;;;;"1261";"2014-10-06 10:47:23.326";"ST_correctStop";"8";"0";"FINISHED";"NONE";"success";"0";"1";"2014-10-06 10:47:22.062";"1";;;;;;;;;;;;;;;;;;;;;;;;;;;;;;;;;;;;;;;;;;;;;;;;;;;;;;;;;;;;;;;;;;;;;;;;;
"natm93";"1993";;"Windows 7";"Rachel's Experiment (SCIAT)";"1.0";"1";"1";"1";"1";"1";"1";"2014-10-06 10:41:29.558";"2014-10-06 10:56:50.407";"1";"1";"0";"1";"1";"100";"99";"module.training_block3.exec-7676.GoNoGo3";;;;;;;;;;;;;;;;;;;;;;;;;"1261";"2014-10-06 10:47:25.868";"NST_correctLoc";"24";"0";"FINISHED";"LEFT";"success";"474";"0";"2014-10-06 10:47:24.605";"3";;;;;;;;;;;;;;;;;;;;;;;;;;;;;;;;;;;;;;;;;;;;;;;;;;;;;;;;;;;;;;;;;;;;;;;;;
"natm93";"1993";;"Windows 7";"Rachel's Experiment (SCIAT)";"1.0";"1";"1";"1";"1";"1";"1";"2014-10-06 10:41:29.558";"2014-10-06 10:56:50.407";"1";"1";"0";"1";"1";"101";"100";"module.training_block3.exec-7676.GoNoGo3";;;;;;;;;;;;;;;;;;;;;;;;;"1261";"2014-10-06 10:47:28.411";"ST_correctStop";"25";"0";"FINISHED";"NONE";"success";"0";"1";"2014-10-06 10:47:27.147";"3";;;;;;;;;;;;;;;;;;;;;;;;;;;;;;;;;;;;;;;;;;;;;;;;;;;;;;;;;;;;;;;;;;;;;;;;;
"natm93";"1993";;"Windows 7";"Rachel's Experiment (SCIAT)";"1.0";"1";"1";"1";"1";"1";"1";"2014-10-06 10:41:29.558";"2014-10-06 10:56:50.407";"1";"1";"0";"1";"1";"102";"101";"module.training_block3.exec-7676.GoNoGo3";;;;;;;;;;;;;;;;;;;;;;;;;"1261";"2014-10-06 10:47:30.954";"NST_correctLoc";"28";"0";"FINISHED";"LEFT";"success";"516";"0";"2014-10-06 10:47:29.690";"3";;;;;;;;;;;;;;;;;;;;;;;;;;;;;;;;;;;;;;;;;;;;;;;;;;;;;;;;;;;;;;;;;;;;;;;;;
"natm93";"1993";;"Windows 7";"Rachel's Experiment (SCIAT)";"1.0";"1";"1";"1";"1";"1";"1";"2014-10-06 10:41:29.558";"2014-10-06 10:56:50.407";"1";"1";"0";"1";"1";"103";"102";"module.training_block3.exec-7676.GoNoGo3";;;;;;;;;;;;;;;;;;;;;;;;;"1261";"2014-10-06 10:47:33.497";"ST_correctStop";"29";"1";"FINISHED";"NONE";"success";"0";"1";"2014-10-06 10:47:32.233";"3";;;;;;;;;;;;;;;;;;;;;;;;;;;;;;;;;;;;;;;;;;;;;;;;;;;;;;;;;;;;;;;;;;;;;;;;;
"natm93";"1993";;"Windows 7";"Rachel's Experiment (SCIAT)";"1.0";"1";"1";"1";"1";"1";"1";"2014-10-06 10:41:29.558";"2014-10-06 10:56:50.407";"1";"1";"0";"1";"1";"104";"103";"module.training_block3.exec-7676.GoNoGo3";;;;;;;;;;;;;;;;;;;;;;;;;"1261";"2014-10-06 10:47:36.039";"NST_correctLoc";"34";"0";"FINISHED";"LEFT";"success";"879";"0";"2014-10-06 10:47:34.776";"3";;;;;;;;;;;;;;;;;;;;;;;;;;;;;;;;;;;;;;;;;;;;;;;;;;;;;;;;;;;;;;;;;;;;;;;;;
"natm93";"1993";;"Windows 7";"Rachel's Experiment (SCIAT)";"1.0";"1";"1";"1";"1";"1";"1";"2014-10-06 10:41:29.558";"2014-10-06 10:56:50.407";"1";"1";"0";"1";"1";"105";"104";"module.training_block3.exec-7676.GoNoGo3";;;;;;;;;;;;;;;;;;;;;;;;;"1261";"2014-10-06 10:47:38.582";"NST_correctLoc";"16";"1";"FINISHED";"RIGHT";"success";"728";"0";"2014-10-06 10:47:37.318";"2";;;;;;;;;;;;;;;;;;;;;;;;;;;;;;;;;;;;;;;;;;;;;;;;;;;;;;;;;;;;;;;;;;;;;;;;;
"natm93";"1993";;"Windows 7";"Rachel's Experiment (SCIAT)";"1.0";"1";"1";"1";"1";"1";"1";"2014-10-06 10:41:29.558";"2014-10-06 10:56:50.407";"1";"1";"0";"1";"1";"106";"105";"module.training_block3.exec-7676.GoNoGo3";;;;;;;;;;;;;;;;;;;;;;;;;"1261";"2014-10-06 10:47:41.125";"NST_correctLoc";"13";"0";"FINISHED";"LEFT";"success";"497";"0";"2014-10-06 10:47:39.861";"2";;;;;;;;;;;;;;;;;;;;;;;;;;;;;;;;;;;;;;;;;;;;;;;;;;;;;;;;;;;;;;;;;;;;;;;;;
"natm93";"1993";;"Windows 7";"Rachel's Experiment (SCIAT)";"1.0";"1";"1";"1";"1";"1";"1";"2014-10-06 10:41:29.558";"2014-10-06 10:56:50.407";"1";"1";"0";"1";"1";"107";"106";"module.training_block3.exec-7676.GoNoGo3";;;;;;;;;;;;;;;;;;;;;;;;;"1261";"2014-10-06 10:47:43.667";"NST_correctLoc";"31";"1";"FINISHED";"RIGHT";"success";"466";"0";"2014-10-06 10:47:42.404";"3";;;;;;;;;;;;;;;;;;;;;;;;;;;;;;;;;;;;;;;;;;;;;;;;;;;;;;;;;;;;;;;;;;;;;;;;;
"natm93";"1993";;"Windows 7";"Rachel's Experiment (SCIAT)";"1.0";"1";"1";"1";"1";"1";"1";"2014-10-06 10:41:29.558";"2014-10-06 10:56:50.407";"1";"1";"0";"1";"1";"108";"107";"module.training_block3.exec-7676.GoNoGo3";;;;;;;;;;;;;;;;;;;;;;;;;"1261";"2014-10-06 10:47:46.210";"NST_correctLoc";"27";"1";"FINISHED";"RIGHT";"success";"451";"0";"2014-10-06 10:47:44.947";"3";;;;;;;;;;;;;;;;;;;;;;;;;;;;;;;;;;;;;;;;;;;;;;;;;;;;;;;;;;;;;;;;;;;;;;;;;
"natm93";"1993";;"Windows 7";"Rachel's Experiment (SCIAT)";"1.0";"1";"1";"1";"1";"1";"1";"2014-10-06 10:41:29.558";"2014-10-06 10:56:50.407";"1";"1";"0";"1";"1";"109";"108";"module.training_block3.exec-7676.GoNoGo3";;;;;;;;;;;;;;;;;;;;;;;;;"1261";"2014-10-06 10:47:48.753";"ST_correctStop";"6";"0";"FINISHED";"NONE";"success";"0";"1";"2014-10-06 10:47:47.489";"1";;;;;;;;;;;;;;;;;;;;;;;;;;;;;;;;;;;;;;;;;;;;;;;;;;;;;;;;;;;;;;;;;;;;;;;;;
"natm93";"1993";;"Windows 7";"Rachel's Experiment (SCIAT)";"1.0";"1";"1";"1";"1";"1";"1";"2014-10-06 10:41:29.558";"2014-10-06 10:56:50.407";"1";"1";"0";"1";"1";"110";"109";"module.training_block3.exec-7676.GoNoGo3";;;;;;;;;;;;;;;;;;;;;;;;;"1261";"2014-10-06 10:47:51.296";"ST_correctStop";"7";"0";"FINISHED";"NONE";"success";"0";"1";"2014-10-06 10:47:50.032";"1";;;;;;;;;;;;;;;;;;;;;;;;;;;;;;;;;;;;;;;;;;;;;;;;;;;;;;;;;;;;;;;;;;;;;;;;;
"natm93";"1993";;"Windows 7";"Rachel's Experiment (SCIAT)";"1.0";"1";"1";"1";"1";"1";"1";"2014-10-06 10:41:29.558";"2014-10-06 10:56:50.407";"1";"1";"0";"1";"1";"111";"110";"module.training_block3.exec-7676.GoNoGo3";;;;;;;;;;;;;;;;;;;;;;;;;"1261";"2014-10-06 10:47:53.838";"ST_correctStop";"23";"1";"FINISHED";"NONE";"success";"0";"1";"2014-10-06 10:47:52.575";"3";;;;;;;;;;;;;;;;;;;;;;;;;;;;;;;;;;;;;;;;;;;;;;;;;;;;;;;;;;;;;;;;;;;;;;;;;
"natm93";"1993";;"Windows 7";"Rachel's Experiment (SCIAT)";"1.0";"1";"1";"1";"1";"1";"1";"2014-10-06 10:41:29.558";"2014-10-06 10:56:50.407";"1";"1";"0";"1";"1";"112";"111";"module.training_block3.exec-7676.GoNoGo3";;;;;;;;;;;;;;;;;;;;;;;;;"1261";"2014-10-06 10:47:56.381";"NST_correctLoc";"18";"0";"FINISHED";"LEFT";"success";"320";"0";"2014-10-06 10:47:55.118";"3";;;;;;;;;;;;;;;;;;;;;;;;;;;;;;;;;;;;;;;;;;;;;;;;;;;;;;;;;;;;;;;;;;;;;;;;;
"natm93";"1993";;"Windows 7";"Rachel's Experiment (SCIAT)";"1.0";"1";"1";"1";"1";"1";"1";"2014-10-06 10:41:29.558";"2014-10-06 10:56:50.407";"1";"1";"0";"1";"1";"113";"112";"module.training_block3.exec-7676.GoNoGo3";;;;;;;;;;;;;;;;;;;;;;;;;"1261";"2014-10-06 10:47:58.924";"ST_correctStop";"3";"0";"FINISHED";"NONE";"success";"0";"1";"2014-10-06 10:47:57.660";"1";;;;;;;;;;;;;;;;;;;;;;;;;;;;;;;;;;;;;;;;;;;;;;;;;;;;;;;;;;;;;;;;;;;;;;;;;
"natm93";"1993";;"Windows 7";"Rachel's Experiment (SCIAT)";"1.0";"1";"1";"1";"1";"1";"1";"2014-10-06 10:41:29.558";"2014-10-06 10:56:50.407";"1";"1";"0";"1";"1";"114";"113";"module.training_block3.exec-7676.GoNoGo3";;;;;;;;;;;;;;;;;;;;;;;;;"1256";"2014-10-06 10:48:01.467";"NST_correctLoc";"22";"1";"FINISHED";"RIGHT";"success";"389";"0";"2014-10-06 10:48:00.203";"3";;;;;;;;;;;;;;;;;;;;;;;;;;;;;;;;;;;;;;;;;;;;;;;;;;;;;;;;;;;;;;;;;;;;;;;;;
"natm93";"1993";;"Windows 7";"Rachel's Experiment (SCIAT)";"1.0";"1";"1";"1";"1";"1";"1";"2014-10-06 10:41:29.558";"2014-10-06 10:56:50.407";"1";"1";"0";"1";"1";"115";"114";"module.training_block3.exec-7676.GoNoGo3";;;;;;;;;;;;;;;;;;;;;;;;;"1261";"2014-10-06 10:48:04.009";"NST_correctLoc";"15";"0";"FINISHED";"LEFT";"success";"427";"0";"2014-10-06 10:48:02.746";"2";;;;;;;;;;;;;;;;;;;;;;;;;;;;;;;;;;;;;;;;;;;;;;;;;;;;;;;;;;;;;;;;;;;;;;;;;
"natm93";"1993";;"Windows 7";"Rachel's Experiment (SCIAT)";"1.0";"1";"1";"1";"1";"1";"1";"2014-10-06 10:41:29.558";"2014-10-06 10:56:50.407";"1";"1";"0";"1";"1";"116";"115";"module.training_block3.exec-7676.GoNoGo3";;;;;;;;;;;;;;;;;;;;;;;;;"1261";"2014-10-06 10:48:06.552";"NST_correctLoc";"14";"0";"FINISHED";"LEFT";"success";"461";"0";"2014-10-06 10:48:05.289";"2";;;;;;;;;;;;;;;;;;;;;;;;;;;;;;;;;;;;;;;;;;;;;;;;;;;;;;;;;;;;;;;;;;;;;;;;;
"natm93";"1993";;"Windows 7";"Rachel's Experiment (SCIAT)";"1.0";"1";"1";"1";"1";"1";"1";"2014-10-06 10:41:29.558";"2014-10-06 10:56:50.407";"1";"1";"0";"1";"1";"117";"116";"module.training_block3.exec-7676.GoNoGo3";;;;;;;;;;;;;;;;;;;;;;;;;"1261";"2014-10-06 10:48:09.095";"ST_correctStop";"5";"0";"FINISHED";"NONE";"success";"0";"1";"2014-10-06 10:48:07.831";"1";;;;;;;;;;;;;;;;;;;;;;;;;;;;;;;;;;;;;;;;;;;;;;;;;;;;;;;;;;;;;;;;;;;;;;;;;
"natm93";"1993";;"Windows 7";"Rachel's Experiment (SCIAT)";"1.0";"1";"1";"1";"1";"1";"1";"2014-10-06 10:41:29.558";"2014-10-06 10:56:50.407";"1";"1";"0";"1";"1";"118";"117";"module.training_block3.exec-7676.GoNoGo3";;;;;;;;;;;;;;;;;;;;;;;;;"1257";"2014-10-06 10:48:11.638";"ST_correctStop";"19";"1";"FINISHED";"NONE";"success";"0";"1";"2014-10-06 10:48:10.374";"3";;;;;;;;;;;;;;;;;;;;;;;;;;;;;;;;;;;;;;;;;;;;;;;;;;;;;;;;;;;;;;;;;;;;;;;;;
"natm93";"1993";;"Windows 7";"Rachel's Experiment (SCIAT)";"1.0";"1";"1";"1";"1";"1";"1";"2014-10-06 10:41:29.558";"2014-10-06 10:56:50.407";"1";"1";"0";"1";"1";"119";"118";"module.training_block3.exec-7676.GoNoGo3";;;;;;;;;;;;;;;;;;;;;;;;;"1261";"2014-10-06 10:48:14.180";"NST_correctLoc";"11";"0";"FINISHED";"LEFT";"success";"592";"0";"2014-10-06 10:48:12.917";"2";;;;;;;;;;;;;;;;;;;;;;;;;;;;;;;;;;;;;;;;;;;;;;;;;;;;;;;;;;;;;;;;;;;;;;;;;
"natm93";"1993";;"Windows 7";"Rachel's Experiment (SCIAT)";"1.0";"1";"1";"1";"1";"1";"1";"2014-10-06 10:41:29.558";"2014-10-06 10:56:50.407";"1";"1";"0";"1";"1";"120";"119";"module.training_block3.exec-7676.GoNoGo3";;;;;;;;;;;;;;;;;;;;;;;;;"1261";"2014-10-06 10:48:16.723";"NST_correctLoc";"33";"0";"FINISHED";"LEFT";"success";"457";"0";"2014-10-06 10:48:15.459";"3";;;;;;;;;;;;;;;;;;;;;;;;;;;;;;;;;;;;;;;;;;;;;;;;;;;;;;;;;;;;;;;;;;;;;;;;;
"natm93";"1993";;"Windows 7";"Rachel's Experiment (SCIAT)";"1.0";"1";"1";"1";"1";"1";"1";"2014-10-06 10:41:29.558";"2014-10-06 10:56:50.407";"1";"1";"0";"1";"1";"121";"120";"module.training_block3.exec-7676.GoNoGo3";;;;;;;;;;;;;;;;;;;;;;;;;"1261";"2014-10-06 10:48:19.266";"NST_correctLoc";"17";"0";"FINISHED";"LEFT";"success";"427";"0";"2014-10-06 10:48:18.002";"2";;;;;;;;;;;;;;;;;;;;;;;;;;;;;;;;;;;;;;;;;;;;;;;;;;;;;;;;;;;;;;;;;;;;;;;;;
"natm93";"1993";;"Windows 7";"Rachel's Experiment (SCIAT)";"1.0";"1";"1";"1";"1";"1";"1";"2014-10-06 10:41:29.558";"2014-10-06 10:56:50.407";"1";"1";"0";"1";"1";"122";"121";"module.training_block3.exec-7676.GoNoGo3";;;;;;;;;;;;;;;;;;;;;;;;;"1261";"2014-10-06 10:48:21.808";"ST_correctStop";"2";"0";"FINISHED";"NONE";"success";"0";"1";"2014-10-06 10:48:20.545";"1";;;;;;;;;;;;;;;;;;;;;;;;;;;;;;;;;;;;;;;;;;;;;;;;;;;;;;;;;;;;;;;;;;;;;;;;;
"natm93";"1993";;"Windows 7";"Rachel's Experiment (SCIAT)";"1.0";"1";"1";"1";"1";"1";"1";"2014-10-06 10:41:29.558";"2014-10-06 10:56:50.407";"1";"1";"0";"1";"1";"123";"122";"module.training_block3.exec-7676.GoNoGo3";;;;;;;;;;;;;;;;;;;;;;;;;"1261";"2014-10-06 10:48:24.351";"ST_correctStop";"4";"0";"FINISHED";"NONE";"success";"0";"1";"2014-10-06 10:48:23.088";"1";;;;;;;;;;;;;;;;;;;;;;;;;;;;;;;;;;;;;;;;;;;;;;;;;;;;;;;;;;;;;;;;;;;;;;;;;
"natm93";"1993";;"Windows 7";"Rachel's Experiment (SCIAT)";"1.0";"1";"1";"1";"1";"1";"1";"2014-10-06 10:41:29.558";"2014-10-06 10:56:50.407";"1";"1";"0";"1";"1";"124";"123";"module.training_block4.exec-1233.GoNoGo4";;;;;;;;;;;;;;;;;;;;;;;;;;;;;;;;;;;;;"1261";"2014-10-06 10:48:43.664";"ST_correctStop";"35";"0";"FINISHED";"NONE";"success";"0";"1";"2014-10-06 10:48:42.400";"3";;;;;;;;;;;;;;;;;;;;;;;;;;;;;;;;;;;;;;;;;;;;;;;;;;;;;;;;;;;;;
"natm93";"1993";;"Windows 7";"Rachel's Experiment (SCIAT)";"1.0";"1";"1";"1";"1";"1";"1";"2014-10-06 10:41:29.558";"2014-10-06 10:56:50.407";"1";"1";"0";"1";"1";"125";"124";"module.training_block4.exec-1233.GoNoGo4";;;;;;;;;;;;;;;;;;;;;;;;;;;;;;;;;;;;;"1261";"2014-10-06 10:48:46.206";"ST_correctStop";"2";"0";"FINISHED";"NONE";"success";"0";"1";"2014-10-06 10:48:44.943";"1";;;;;;;;;;;;;;;;;;;;;;;;;;;;;;;;;;;;;;;;;;;;;;;;;;;;;;;;;;;;;
"natm93";"1993";;"Windows 7";"Rachel's Experiment (SCIAT)";"1.0";"1";"1";"1";"1";"1";"1";"2014-10-06 10:41:29.558";"2014-10-06 10:56:50.407";"1";"1";"0";"1";"1";"126";"125";"module.training_block4.exec-1233.GoNoGo4";;;;;;;;;;;;;;;;;;;;;;;;;;;;;;;;;;;;;"1261";"2014-10-06 10:48:48.749";"NST_correctLoc";"16";"1";"FINISHED";"RIGHT";"success";"382";"0";"2014-10-06 10:48:47.485";"2";;;;;;;;;;;;;;;;;;;;;;;;;;;;;;;;;;;;;;;;;;;;;;;;;;;;;;;;;;;;;
"natm93";"1993";;"Windows 7";"Rachel's Experiment (SCIAT)";"1.0";"1";"1";"1";"1";"1";"1";"2014-10-06 10:41:29.558";"2014-10-06 10:56:50.407";"1";"1";"0";"1";"1";"127";"126";"module.training_block4.exec-1233.GoNoGo4";;;;;;;;;;;;;;;;;;;;;;;;;;;;;;;;;;;;;"1261";"2014-10-06 10:48:51.292";"ST_correctStop";"26";"1";"FINISHED";"NONE";"success";"0";"1";"2014-10-06 10:48:50.028";"3";;;;;;;;;;;;;;;;;;;;;;;;;;;;;;;;;;;;;;;;;;;;;;;;;;;;;;;;;;;;;
"natm93";"1993";;"Windows 7";"Rachel's Experiment (SCIAT)";"1.0";"1";"1";"1";"1";"1";"1";"2014-10-06 10:41:29.558";"2014-10-06 10:56:50.407";"1";"1";"0";"1";"1";"128";"127";"module.training_block4.exec-1233.GoNoGo4";;;;;;;;;;;;;;;;;;;;;;;;;;;;;;;;;;;;;"1261";"2014-10-06 10:48:53.834";"ST_correctStop";"7";"0";"FINISHED";"NONE";"success";"0";"1";"2014-10-06 10:48:52.571";"1";;;;;;;;;;;;;;;;;;;;;;;;;;;;;;;;;;;;;;;;;;;;;;;;;;;;;;;;;;;;;
"natm93";"1993";;"Windows 7";"Rachel's Experiment (SCIAT)";"1.0";"1";"1";"1";"1";"1";"1";"2014-10-06 10:41:29.558";"2014-10-06 10:56:50.407";"1";"1";"0";"1";"1";"129";"128";"module.training_block4.exec-1233.GoNoGo4";;;;;;;;;;;;;;;;;;;;;;;;;;;;;;;;;;;;;"1261";"2014-10-06 10:48:56.377";"ST_correctStop";"4";"0";"FINISHED";"NONE";"success";"0";"1";"2014-10-06 10:48:55.114";"1";;;;;;;;;;;;;;;;;;;;;;;;;;;;;;;;;;;;;;;;;;;;;;;;;;;;;;;;;;;;;
"natm93";"1993";;"Windows 7";"Rachel's Experiment (SCIAT)";"1.0";"1";"1";"1";"1";"1";"1";"2014-10-06 10:41:29.558";"2014-10-06 10:56:50.407";"1";"1";"0";"1";"1";"130";"129";"module.training_block4.exec-1233.GoNoGo4";;;;;;;;;;;;;;;;;;;;;;;;;;;;;;;;;;;;;"1261";"2014-10-06 10:48:58.920";"NST_correctLoc";"20";"1";"FINISHED";"RIGHT";"success";"595";"0";"2014-10-06 10:48:57.656";"3";;;;;;;;;;;;;;;;;;;;;;;;;;;;;;;;;;;;;;;;;;;;;;;;;;;;;;;;;;;;;
"natm93";"1993";;"Windows 7";"Rachel's Experiment (SCIAT)";"1.0";"1";"1";"1";"1";"1";"1";"2014-10-06 10:41:29.558";"2014-10-06 10:56:50.407";"1";"1";"0";"1";"1";"131";"130";"module.training_block4.exec-1233.GoNoGo4";;;;;;;;;;;;;;;;;;;;;;;;;;;;;;;;;;;;;"1261";"2014-10-06 10:49:01.463";"NST_correctLoc";"27";"1";"FINISHED";"RIGHT";"success";"556";"0";"2014-10-06 10:49:00.199";"3";;;;;;;;;;;;;;;;;;;;;;;;;;;;;;;;;;;;;;;;;;;;;;;;;;;;;;;;;;;;;
"natm93";"1993";;"Windows 7";"Rachel's Experiment (SCIAT)";"1.0";"1";"1";"1";"1";"1";"1";"2014-10-06 10:41:29.558";"2014-10-06 10:56:50.407";"1";"1";"0";"1";"1";"132";"131";"module.training_block4.exec-1233.GoNoGo4";;;;;;;;;;;;;;;;;;;;;;;;;;;;;;;;;;;;;"1261";"2014-10-06 10:49:04.005";"NST_correctLoc";"12";"0";"FINISHED";"LEFT";"success";"461";"0";"2014-10-06 10:49:02.742";"2";;;;;;;;;;;;;;;;;;;;;;;;;;;;;;;;;;;;;;;;;;;;;;;;;;;;;;;;;;;;;
"natm93";"1993";;"Windows 7";"Rachel's Experiment (SCIAT)";"1.0";"1";"1";"1";"1";"1";"1";"2014-10-06 10:41:29.558";"2014-10-06 10:56:50.407";"1";"1";"0";"1";"1";"133";"132";"module.training_block4.exec-1233.GoNoGo4";;;;;;;;;;;;;;;;;;;;;;;;;;;;;;;;;;;;;"1261";"2014-10-06 10:49:06.548";"ST_correctStop";"24";"1";"FINISHED";"NONE";"success";"0";"1";"2014-10-06 10:49:05.285";"3";;;;;;;;;;;;;;;;;;;;;;;;;;;;;;;;;;;;;;;;;;;;;;;;;;;;;;;;;;;;;
"natm93";"1993";;"Windows 7";"Rachel's Experiment (SCIAT)";"1.0";"1";"1";"1";"1";"1";"1";"2014-10-06 10:41:29.558";"2014-10-06 10:56:50.407";"1";"1";"0";"1";"1";"134";"133";"module.training_block4.exec-1233.GoNoGo4";;;;;;;;;;;;;;;;;;;;;;;;;;;;;;;;;;;;;"1261";"2014-10-06 10:49:09.091";"ST_failedStop";"23";"1";"FINISHED";"RIGHT";"failure";"304";"1";"2014-10-06 10:49:07.827";"3";;;;;;;;;;;;;;;;;;;;;;;;;;;;;;;;;;;;;;;;;;;;;;;;;;;;;;;;;;;;;
"natm93";"1993";;"Windows 7";"Rachel's Experiment (SCIAT)";"1.0";"1";"1";"1";"1";"1";"1";"2014-10-06 10:41:29.558";"2014-10-06 10:56:50.407";"1";"1";"0";"1";"1";"135";"134";"module.training_block4.exec-1233.GoNoGo4";;;;;;;;;;;;;;;;;;;;;;;;;;;;;;;;;;;;;"1261";"2014-10-06 10:49:11.634";"ST_correctStop";"29";"0";"FINISHED";"NONE";"success";"0";"1";"2014-10-06 10:49:10.370";"3";;;;;;;;;;;;;;;;;;;;;;;;;;;;;;;;;;;;;;;;;;;;;;;;;;;;;;;;;;;;;
"natm93";"1993";;"Windows 7";"Rachel's Experiment (SCIAT)";"1.0";"1";"1";"1";"1";"1";"1";"2014-10-06 10:41:29.558";"2014-10-06 10:56:50.407";"1";"1";"0";"1";"1";"136";"135";"module.training_block4.exec-1233.GoNoGo4";;;;;;;;;;;;;;;;;;;;;;;;;;;;;;;;;;;;;"1261";"2014-10-06 10:49:14.176";"NST_correctLoc";"32";"1";"FINISHED";"RIGHT";"success";"562";"0";"2014-10-06 10:49:12.913";"3";;;;;;;;;;;;;;;;;;;;;;;;;;;;;;;;;;;;;;;;;;;;;;;;;;;;;;;;;;;;;
"natm93";"1993";;"Windows 7";"Rachel's Experiment (SCIAT)";"1.0";"1";"1";"1";"1";"1";"1";"2014-10-06 10:41:29.558";"2014-10-06 10:56:50.407";"1";"1";"0";"1";"1";"137";"136";"module.training_block4.exec-1233.GoNoGo4";;;;;;;;;;;;;;;;;;;;;;;;;;;;;;;;;;;;;"1261";"2014-10-06 10:49:16.719";"NST_correctLoc";"30";"0";"FINISHED";"LEFT";"success";"411";"0";"2014-10-06 10:49:15.456";"3";;;;;;;;;;;;;;;;;;;;;;;;;;;;;;;;;;;;;;;;;;;;;;;;;;;;;;;;;;;;;
"natm93";"1993";;"Windows 7";"Rachel's Experiment (SCIAT)";"1.0";"1";"1";"1";"1";"1";"1";"2014-10-06 10:41:29.558";"2014-10-06 10:56:50.407";"1";"1";"0";"1";"1";"138";"137";"module.training_block4.exec-1233.GoNoGo4";;;;;;;;;;;;;;;;;;;;;;;;;;;;;;;;;;;;;"1261";"2014-10-06 10:49:19.262";"ST_correctStop";"5";"1";"FINISHED";"NONE";"success";"0";"1";"2014-10-06 10:49:17.998";"1";;;;;;;;;;;;;;;;;;;;;;;;;;;;;;;;;;;;;;;;;;;;;;;;;;;;;;;;;;;;;
"natm93";"1993";;"Windows 7";"Rachel's Experiment (SCIAT)";"1.0";"1";"1";"1";"1";"1";"1";"2014-10-06 10:41:29.558";"2014-10-06 10:56:50.407";"1";"1";"0";"1";"1";"139";"138";"module.training_block4.exec-1233.GoNoGo4";;;;;;;;;;;;;;;;;;;;;;;;;;;;;;;;;;;;;"1258";"2014-10-06 10:49:21.805";"NST_correctLoc";"11";"0";"FINISHED";"LEFT";"success";"434";"0";"2014-10-06 10:49:20.541";"2";;;;;;;;;;;;;;;;;;;;;;;;;;;;;;;;;;;;;;;;;;;;;;;;;;;;;;;;;;;;;
"natm93";"1993";;"Windows 7";"Rachel's Experiment (SCIAT)";"1.0";"1";"1";"1";"1";"1";"1";"2014-10-06 10:41:29.558";"2014-10-06 10:56:50.407";"1";"1";"0";"1";"1";"140";"139";"module.training_block4.exec-1233.GoNoGo4";;;;;;;;;;;;;;;;;;;;;;;;;;;;;;;;;;;;;"1261";"2014-10-06 10:49:24.347";"NST_correctLoc";"14";"0";"FINISHED";"LEFT";"success";"463";"0";"2014-10-06 10:49:23.084";"2";;;;;;;;;;;;;;;;;;;;;;;;;;;;;;;;;;;;;;;;;;;;;;;;;;;;;;;;;;;;;
"natm93";"1993";;"Windows 7";"Rachel's Experiment (SCIAT)";"1.0";"1";"1";"1";"1";"1";"1";"2014-10-06 10:41:29.558";"2014-10-06 10:56:50.407";"1";"1";"0";"1";"1";"141";"140";"module.training_block4.exec-1233.GoNoGo4";;;;;;;;;;;;;;;;;;;;;;;;;;;;;;;;;;;;;"1261";"2014-10-06 10:49:26.890";"ST_correctStop";"34";"1";"FINISHED";"NONE";"success";"0";"1";"2014-10-06 10:49:25.626";"3";;;;;;;;;;;;;;;;;;;;;;;;;;;;;;;;;;;;;;;;;;;;;;;;;;;;;;;;;;;;;
"natm93";"1993";;"Windows 7";"Rachel's Experiment (SCIAT)";"1.0";"1";"1";"1";"1";"1";"1";"2014-10-06 10:41:29.558";"2014-10-06 10:56:50.407";"1";"1";"0";"1";"1";"142";"141";"module.training_block4.exec-1233.GoNoGo4";;;;;;;;;;;;;;;;;;;;;;;;;;;;;;;;;;;;;"1262";"2014-10-06 10:49:29.433";"NST_correctLoc";"10";"0";"FINISHED";"LEFT";"success";"489";"0";"2014-10-06 10:49:28.169";"2";;;;;;;;;;;;;;;;;;;;;;;;;;;;;;;;;;;;;;;;;;;;;;;;;;;;;;;;;;;;;
"natm93";"1993";;"Windows 7";"Rachel's Experiment (SCIAT)";"1.0";"1";"1";"1";"1";"1";"1";"2014-10-06 10:41:29.558";"2014-10-06 10:56:50.407";"1";"1";"0";"1";"1";"143";"142";"module.training_block4.exec-1233.GoNoGo4";;;;;;;;;;;;;;;;;;;;;;;;;;;;;;;;;;;;;"1262";"2014-10-06 10:49:31.975";"ST_correctStop";"1";"0";"FINISHED";"NONE";"success";"0";"1";"2014-10-06 10:49:30.712";"1";;;;;;;;;;;;;;;;;;;;;;;;;;;;;;;;;;;;;;;;;;;;;;;;;;;;;;;;;;;;;
"natm93";"1993";;"Windows 7";"Rachel's Experiment (SCIAT)";"1.0";"1";"1";"1";"1";"1";"1";"2014-10-06 10:41:29.558";"2014-10-06 10:56:50.407";"1";"1";"0";"1";"1";"144";"143";"module.training_block4.exec-1233.GoNoGo4";;;;;;;;;;;;;;;;;;;;;;;;;;;;;;;;;;;;;"1261";"2014-10-06 10:49:34.518";"ST_correctStop";"0";"1";"FINISHED";"NONE";"success";"0";"1";"2014-10-06 10:49:33.255";"1";;;;;;;;;;;;;;;;;;;;;;;;;;;;;;;;;;;;;;;;;;;;;;;;;;;;;;;;;;;;;
"natm93";"1993";;"Windows 7";"Rachel's Experiment (SCIAT)";"1.0";"1";"1";"1";"1";"1";"1";"2014-10-06 10:41:29.558";"2014-10-06 10:56:50.407";"1";"1";"0";"1";"1";"145";"144";"module.training_block4.exec-1233.GoNoGo4";;;;;;;;;;;;;;;;;;;;;;;;;;;;;;;;;;;;;"1261";"2014-10-06 10:49:37.061";"ST_correctStop";"8";"1";"FINISHED";"NONE";"success";"0";"1";"2014-10-06 10:49:35.797";"1";;;;;;;;;;;;;;;;;;;;;;;;;;;;;;;;;;;;;;;;;;;;;;;;;;;;;;;;;;;;;
"natm93";"1993";;"Windows 7";"Rachel's Experiment (SCIAT)";"1.0";"1";"1";"1";"1";"1";"1";"2014-10-06 10:41:29.558";"2014-10-06 10:56:50.407";"1";"1";"0";"1";"1";"146";"145";"module.training_block4.exec-1233.GoNoGo4";;;;;;;;;;;;;;;;;;;;;;;;;;;;;;;;;;;;;"1261";"2014-10-06 10:49:39.604";"ST_correctStop";"3";"0";"FINISHED";"NONE";"success";"0";"1";"2014-10-06 10:49:38.340";"1";;;;;;;;;;;;;;;;;;;;;;;;;;;;;;;;;;;;;;;;;;;;;;;;;;;;;;;;;;;;;
"natm93";"1993";;"Windows 7";"Rachel's Experiment (SCIAT)";"1.0";"1";"1";"1";"1";"1";"1";"2014-10-06 10:41:29.558";"2014-10-06 10:56:50.407";"1";"1";"0";"1";"1";"147";"146";"module.training_block4.exec-1233.GoNoGo4";;;;;;;;;;;;;;;;;;;;;;;;;;;;;;;;;;;;;"1256";"2014-10-06 10:49:42.146";"NST_correctLoc";"9";"1";"FINISHED";"RIGHT";"success";"394";"0";"2014-10-06 10:49:40.883";"2";;;;;;;;;;;;;;;;;;;;;;;;;;;;;;;;;;;;;;;;;;;;;;;;;;;;;;;;;;;;;
"natm93";"1993";;"Windows 7";"Rachel's Experiment (SCIAT)";"1.0";"1";"1";"1";"1";"1";"1";"2014-10-06 10:41:29.558";"2014-10-06 10:56:50.407";"1";"1";"0";"1";"1";"148";"147";"module.training_block4.exec-1233.GoNoGo4";;;;;;;;;;;;;;;;;;;;;;;;;;;;;;;;;;;;;"1262";"2014-10-06 10:49:44.689";"NST_correctLoc";"13";"0";"FINISHED";"LEFT";"success";"544";"0";"2014-10-06 10:49:43.426";"2";;;;;;;;;;;;;;;;;;;;;;;;;;;;;;;;;;;;;;;;;;;;;;;;;;;;;;;;;;;;;
"natm93";"1993";;"Windows 7";"Rachel's Experiment (SCIAT)";"1.0";"1";"1";"1";"1";"1";"1";"2014-10-06 10:41:29.558";"2014-10-06 10:56:50.407";"1";"1";"0";"1";"1";"149";"148";"module.training_block4.exec-1233.GoNoGo4";;;;;;;;;;;;;;;;;;;;;;;;;;;;;;;;;;;;;"1261";"2014-10-06 10:49:47.232";"ST_correctStop";"21";"1";"FINISHED";"NONE";"success";"0";"1";"2014-10-06 10:49:45.968";"3";;;;;;;;;;;;;;;;;;;;;;;;;;;;;;;;;;;;;;;;;;;;;;;;;;;;;;;;;;;;;
"natm93";"1993";;"Windows 7";"Rachel's Experiment (SCIAT)";"1.0";"1";"1";"1";"1";"1";"1";"2014-10-06 10:41:29.558";"2014-10-06 10:56:50.407";"1";"1";"0";"1";"1";"150";"149";"module.training_block4.exec-1233.GoNoGo4";;;;;;;;;;;;;;;;;;;;;;;;;;;;;;;;;;;;;"1261";"2014-10-06 10:49:49.775";"NST_correctLoc";"31";"0";"FINISHED";"LEFT";"success";"579";"0";"2014-10-06 10:49:48.511";"3";;;;;;;;;;;;;;;;;;;;;;;;;;;;;;;;;;;;;;;;;;;;;;;;;;;;;;;;;;;;;
"natm93";"1993";;"Windows 7";"Rachel's Experiment (SCIAT)";"1.0";"1";"1";"1";"1";"1";"1";"2014-10-06 10:41:29.558";"2014-10-06 10:56:50.407";"1";"1";"0";"1";"1";"151";"150";"module.training_block4.exec-1233.GoNoGo4";;;;;;;;;;;;;;;;;;;;;;;;;;;;;;;;;;;;;"1261";"2014-10-06 10:49:52.317";"ST_correctStop";"6";"0";"FINISHED";"NONE";"success";"0";"1";"2014-10-06 10:49:51.054";"1";;;;;;;;;;;;;;;;;;;;;;;;;;;;;;;;;;;;;;;;;;;;;;;;;;;;;;;;;;;;;
"natm93";"1993";;"Windows 7";"Rachel's Experiment (SCIAT)";"1.0";"1";"1";"1";"1";"1";"1";"2014-10-06 10:41:29.558";"2014-10-06 10:56:50.407";"1";"1";"0";"1";"1";"152";"151";"module.training_block4.exec-1233.GoNoGo4";;;;;;;;;;;;;;;;;;;;;;;;;;;;;;;;;;;;;"1261";"2014-10-06 10:49:54.860";"NST_correctLoc";"22";"0";"FINISHED";"LEFT";"success";"637";"0";"2014-10-06 10:49:53.597";"3";;;;;;;;;;;;;;;;;;;;;;;;;;;;;;;;;;;;;;;;;;;;;;;;;;;;;;;;;;;;;
"natm93";"1993";;"Windows 7";"Rachel's Experiment (SCIAT)";"1.0";"1";"1";"1";"1";"1";"1";"2014-10-06 10:41:29.558";"2014-10-06 10:56:50.407";"1";"1";"0";"1";"1";"153";"152";"module.training_block4.exec-1233.GoNoGo4";;;;;;;;;;;;;;;;;;;;;;;;;;;;;;;;;;;;;"1261";"2014-10-06 10:49:57.403";"NST_correctLoc";"17";"0";"FINISHED";"LEFT";"success";"766";"0";"2014-10-06 10:49:56.139";"2";;;;;;;;;;;;;;;;;;;;;;;;;;;;;;;;;;;;;;;;;;;;;;;;;;;;;;;;;;;;;
"natm93";"1993";;"Windows 7";"Rachel's Experiment (SCIAT)";"1.0";"1";"1";"1";"1";"1";"1";"2014-10-06 10:41:29.558";"2014-10-06 10:56:50.407";"1";"1";"0";"1";"1";"154";"153";"module.training_block4.exec-1233.GoNoGo4";;;;;;;;;;;;;;;;;;;;;;;;;;;;;;;;;;;;;"1261";"2014-10-06 10:49:59.946";"ST_correctStop";"25";"0";"FINISHED";"NONE";"success";"0";"1";"2014-10-06 10:49:58.682";"3";;;;;;;;;;;;;;;;;;;;;;;;;;;;;;;;;;;;;;;;;;;;;;;;;;;;;;;;;;;;;
"natm93";"1993";;"Windows 7";"Rachel's Experiment (SCIAT)";"1.0";"1";"1";"1";"1";"1";"1";"2014-10-06 10:41:29.558";"2014-10-06 10:56:50.407";"1";"1";"0";"1";"1";"155";"154";"module.training_block4.exec-1233.GoNoGo4";;;;;;;;;;;;;;;;;;;;;;;;;;;;;;;;;;;;;"1262";"2014-10-06 10:50:02.488";"ST_correctStop";"19";"1";"FINISHED";"NONE";"success";"0";"1";"2014-10-06 10:50:01.225";"3";;;;;;;;;;;;;;;;;;;;;;;;;;;;;;;;;;;;;;;;;;;;;;;;;;;;;;;;;;;;;
"natm93";"1993";;"Windows 7";"Rachel's Experiment (SCIAT)";"1.0";"1";"1";"1";"1";"1";"1";"2014-10-06 10:41:29.558";"2014-10-06 10:56:50.407";"1";"1";"0";"1";"1";"156";"155";"module.training_block4.exec-1233.GoNoGo4";;;;;;;;;;;;;;;;;;;;;;;;;;;;;;;;;;;;;"1261";"2014-10-06 10:50:05.031";"NST_correctLoc";"18";"0";"FINISHED";"LEFT";"success";"554";"0";"2014-10-06 10:50:03.767";"3";;;;;;;;;;;;;;;;;;;;;;;;;;;;;;;;;;;;;;;;;;;;;;;;;;;;;;;;;;;;;
"natm93";"1993";;"Windows 7";"Rachel's Experiment (SCIAT)";"1.0";"1";"1";"1";"1";"1";"1";"2014-10-06 10:41:29.558";"2014-10-06 10:56:50.407";"1";"1";"0";"1";"1";"157";"156";"module.training_block4.exec-1233.GoNoGo4";;;;;;;;;;;;;;;;;;;;;;;;;;;;;;;;;;;;;"1261";"2014-10-06 10:50:07.574";"NST_correctLoc";"28";"0";"FINISHED";"LEFT";"success";"427";"0";"2014-10-06 10:50:06.310";"3";;;;;;;;;;;;;;;;;;;;;;;;;;;;;;;;;;;;;;;;;;;;;;;;;;;;;;;;;;;;;
"natm93";"1993";;"Windows 7";"Rachel's Experiment (SCIAT)";"1.0";"1";"1";"1";"1";"1";"1";"2014-10-06 10:41:29.558";"2014-10-06 10:56:50.407";"1";"1";"0";"1";"1";"158";"157";"module.training_block4.exec-1233.GoNoGo4";;;;;;;;;;;;;;;;;;;;;;;;;;;;;;;;;;;;;"1261";"2014-10-06 10:50:10.117";"NST_correctLoc";"33";"0";"FINISHED";"LEFT";"success";"660";"0";"2014-10-06 10:50:08.853";"3";;;;;;;;;;;;;;;;;;;;;;;;;;;;;;;;;;;;;;;;;;;;;;;;;;;;;;;;;;;;;
"natm93";"1993";;"Windows 7";"Rachel's Experiment (SCIAT)";"1.0";"1";"1";"1";"1";"1";"1";"2014-10-06 10:41:29.558";"2014-10-06 10:56:50.407";"1";"1";"0";"1";"1";"159";"158";"module.training_block4.exec-1233.GoNoGo4";;;;;;;;;;;;;;;;;;;;;;;;;;;;;;;;;;;;;"1261";"2014-10-06 10:50:12.659";"NST_correctLoc";"15";"1";"FINISHED";"RIGHT";"success";"365";"0";"2014-10-06 10:50:11.396";"2";;;;;;;;;;;;;;;;;;;;;;;;;;;;;;;;;;;;;;;;;;;;;;;;;;;;;;;;;;;;;
"natm93";"1993";;"Windows 7";"Rachel's Experiment (SCIAT)";"1.0";"1";"1";"1";"1";"1";"1";"2014-10-06 10:41:29.558";"2014-10-06 10:56:50.407";"1";"1";"0";"1";"1";"160";"159";"module.IAT_practice1.exec-6232.IAT_Practice1";;;;;;;;;;;;;;;;;;;;;;;;;;;;;;;;;;;;;;;;;;;;;;;;;;;;;;;;;;;;;;;;;;;;;;;;;;;;;;;;;;;;;;;;;;"1713";"2014-10-06 10:50:49.833";"FINISHED";"UNPLEASANT";"success";"826";"2014-10-06 10:50:48.117";"IAT_UPpractice.csv";"1";"awful";;;;;;;;;;
"natm93";"1993";;"Windows 7";"Rachel's Experiment (SCIAT)";"1.0";"1";"1";"1";"1";"1";"1";"2014-10-06 10:41:29.558";"2014-10-06 10:56:50.407";"1";"1";"0";"1";"1";"161";"160";"module.IAT_practice1.exec-6232.IAT_Practice1";;;;;;;;;;;;;;;;;;;;;;;;;;;;;;;;;;;;;;;;;;;;;;;;;;;;;;;;;;;;;;;;;;;;;;;;;;;;;;;;;;;;;;;;;;"1702";"2014-10-06 10:50:51.565";"FINISHED";"NEUTRAL";"success";"907";"2014-10-06 10:50:49.849";"IAT_UPpractice.csv";"2";"average";;;;;;;;;;
"natm93";"1993";;"Windows 7";"Rachel's Experiment (SCIAT)";"1.0";"1";"1";"1";"1";"1";"1";"2014-10-06 10:41:29.558";"2014-10-06 10:56:50.407";"1";"1";"0";"1";"1";"162";"161";"module.IAT_practice1.exec-6232.IAT_Practice1";;;;;;;;;;;;;;;;;;;;;;;;;;;;;;;;;;;;;;;;;;;;;;;;;;;;;;;;;;;;;;;;;;;;;;;;;;;;;;;;;;;;;;;;;;"1703";"2014-10-06 10:50:53.296";"FINISHED";"UNPLEASANT";"failure";"641";"2014-10-06 10:50:51.580";"IAT_UPpractice.csv";"2";"undefined";;;;;;;;;;
"natm93";"1993";;"Windows 7";"Rachel's Experiment (SCIAT)";"1.0";"1";"1";"1";"1";"1";"1";"2014-10-06 10:41:29.558";"2014-10-06 10:56:50.407";"1";"1";"0";"1";"1";"163";"162";"module.IAT_practice1.exec-6232.IAT_Practice1";;;;;;;;;;;;;;;;;;;;;;;;;;;;;;;;;;;;;;;;;;;;;;;;;;;;;;;;;;;;;;;;;;;;;;;;;;;;;;;;;;;;;;;;;;"1713";"2014-10-06 10:50:55.028";"FINISHED";"NEUTRAL";"success";"775";"2014-10-06 10:50:53.312";"IAT_UPpractice.csv";"2";"undefined";;;;;;;;;;
"natm93";"1993";;"Windows 7";"Rachel's Experiment (SCIAT)";"1.0";"1";"1";"1";"1";"1";"1";"2014-10-06 10:41:29.558";"2014-10-06 10:56:50.407";"1";"1";"0";"1";"1";"164";"163";"module.IAT_practice1.exec-6232.IAT_Practice1";;;;;;;;;;;;;;;;;;;;;;;;;;;;;;;;;;;;;;;;;;;;;;;;;;;;;;;;;;;;;;;;;;;;;;;;;;;;;;;;;;;;;;;;;;"1710";"2014-10-06 10:50:56.775";"FINISHED";"NEUTRAL";"success";"712";"2014-10-06 10:50:55.059";"IAT_UPpractice.csv";"2";"moderate";;;;;;;;;;
"natm93";"1993";;"Windows 7";"Rachel's Experiment (SCIAT)";"1.0";"1";"1";"1";"1";"1";"1";"2014-10-06 10:41:29.558";"2014-10-06 10:56:50.407";"1";"1";"0";"1";"1";"165";"164";"module.IAT_practice1.exec-6232.IAT_Practice1";;;;;;;;;;;;;;;;;;;;;;;;;;;;;;;;;;;;;;;;;;;;;;;;;;;;;;;;;;;;;;;;;;;;;;;;;;;;;;;;;;;;;;;;;;"1703";"2014-10-06 10:50:58.506";"FINISHED";"UNPLEASANT";"success";"590";"2014-10-06 10:50:56.791";"IAT_UPpractice.csv";"1";"disgusting";;;;;;;;;;
"natm93";"1993";;"Windows 7";"Rachel's Experiment (SCIAT)";"1.0";"1";"1";"1";"1";"1";"1";"2014-10-06 10:41:29.558";"2014-10-06 10:56:50.407";"1";"1";"0";"1";"1";"166";"165";"module.IAT_practice1.exec-6232.IAT_Practice1";;;;;;;;;;;;;;;;;;;;;;;;;;;;;;;;;;;;;;;;;;;;;;;;;;;;;;;;;;;;;;;;;;;;;;;;;;;;;;;;;;;;;;;;;;"1704";"2014-10-06 10:51:00.238";"FINISHED";"UNPLEASANT";"success";"619";"2014-10-06 10:50:58.522";"IAT_UPpractice.csv";"1";"nasty";;;;;;;;;;
"natm93";"1993";;"Windows 7";"Rachel's Experiment (SCIAT)";"1.0";"1";"1";"1";"1";"1";"1";"2014-10-06 10:41:29.558";"2014-10-06 10:56:50.407";"1";"1";"0";"1";"1";"167";"166";"module.IAT_practice1.exec-6232.IAT_Practice1";;;;;;;;;;;;;;;;;;;;;;;;;;;;;;;;;;;;;;;;;;;;;;;;;;;;;;;;;;;;;;;;;;;;;;;;;;;;;;;;;;;;;;;;;;"1713";"2014-10-06 10:51:01.970";"FINISHED";"UNPLEASANT";"success";"513";"2014-10-06 10:51:00.254";"IAT_UPpractice.csv";"1";"awful";;;;;;;;;;
"natm93";"1993";;"Windows 7";"Rachel's Experiment (SCIAT)";"1.0";"1";"1";"1";"1";"1";"1";"2014-10-06 10:41:29.558";"2014-10-06 10:56:50.407";"1";"1";"0";"1";"1";"168";"167";"module.IAT_practice1.exec-6232.IAT_Practice1";;;;;;;;;;;;;;;;;;;;;;;;;;;;;;;;;;;;;;;;;;;;;;;;;;;;;;;;;;;;;;;;;;;;;;;;;;;;;;;;;;;;;;;;;;"1713";"2014-10-06 10:51:03.701";"FINISHED";"UNPLEASANT";"success";"493";"2014-10-06 10:51:01.985";"IAT_UPpractice.csv";"1";"disgusting";;;;;;;;;;
"natm93";"1993";;"Windows 7";"Rachel's Experiment (SCIAT)";"1.0";"1";"1";"1";"1";"1";"1";"2014-10-06 10:41:29.558";"2014-10-06 10:56:50.407";"1";"1";"0";"1";"1";"169";"168";"module.IAT_practice1.exec-6232.IAT_Practice1";;;;;;;;;;;;;;;;;;;;;;;;;;;;;;;;;;;;;;;;;;;;;;;;;;;;;;;;;;;;;;;;;;;;;;;;;;;;;;;;;;;;;;;;;;"1700";"2014-10-06 10:51:05.433";"FINISHED";"UNPLEASANT";"success";"637";"2014-10-06 10:51:03.717";"IAT_UPpractice.csv";"1";"horrible";;;;;;;;;;
"natm93";"1993";;"Windows 7";"Rachel's Experiment (SCIAT)";"1.0";"1";"1";"1";"1";"1";"1";"2014-10-06 10:41:29.558";"2014-10-06 10:56:50.407";"1";"1";"0";"1";"1";"170";"169";"module.IAT_practice1.exec-6232.IAT_Practice1";;;;;;;;;;;;;;;;;;;;;;;;;;;;;;;;;;;;;;;;;;;;;;;;;;;;;;;;;;;;;;;;;;;;;;;;;;;;;;;;;;;;;;;;;;"1704";"2014-10-06 10:51:07.164";"FINISHED";"NEUTRAL";"success";"597";"2014-10-06 10:51:05.448";"IAT_UPpractice.csv";"2";"ordinary";;;;;;;;;;
"natm93";"1993";;"Windows 7";"Rachel's Experiment (SCIAT)";"1.0";"1";"1";"1";"1";"1";"1";"2014-10-06 10:41:29.558";"2014-10-06 10:56:50.407";"1";"1";"0";"1";"1";"171";"170";"module.IAT_practice1.exec-6232.IAT_Practice1";;;;;;;;;;;;;;;;;;;;;;;;;;;;;;;;;;;;;;;;;;;;;;;;;;;;;;;;;;;;;;;;;;;;;;;;;;;;;;;;;;;;;;;;;;"1713";"2014-10-06 10:51:08.896";"FINISHED";"UNPLEASANT";"success";"626";"2014-10-06 10:51:07.180";"IAT_UPpractice.csv";"1";"horrible";;;;;;;;;;
"natm93";"1993";;"Windows 7";"Rachel's Experiment (SCIAT)";"1.0";"1";"1";"1";"1";"1";"1";"2014-10-06 10:41:29.558";"2014-10-06 10:56:50.407";"1";"1";"0";"1";"1";"172";"171";"module.IAT_practice1.exec-6232.IAT_Practice1";;;;;;;;;;;;;;;;;;;;;;;;;;;;;;;;;;;;;;;;;;;;;;;;;;;;;;;;;;;;;;;;;;;;;;;;;;;;;;;;;;;;;;;;;;"1714";"2014-10-06 10:51:10.627";"FINISHED";"UNPLEASANT";"success";"567";"2014-10-06 10:51:08.911";"IAT_UPpractice.csv";"1";"nasty";;;;;;;;;;
"natm93";"1993";;"Windows 7";"Rachel's Experiment (SCIAT)";"1.0";"1";"1";"1";"1";"1";"1";"2014-10-06 10:41:29.558";"2014-10-06 10:56:50.407";"1";"1";"0";"1";"1";"173";"172";"module.IAT_practice1.exec-6232.IAT_Practice1";;;;;;;;;;;;;;;;;;;;;;;;;;;;;;;;;;;;;;;;;;;;;;;;;;;;;;;;;;;;;;;;;;;;;;;;;;;;;;;;;;;;;;;;;;"1711";"2014-10-06 10:51:12.484";"FINISHED";"UNPLEASANT";"success";"453";"2014-10-06 10:51:10.768";"IAT_UPpractice.csv";"1";"bad";;;;;;;;;;
"natm93";"1993";;"Windows 7";"Rachel's Experiment (SCIAT)";"1.0";"1";"1";"1";"1";"1";"1";"2014-10-06 10:41:29.558";"2014-10-06 10:56:50.407";"1";"1";"0";"1";"1";"174";"173";"module.IAT_practice1.exec-6232.IAT_Practice1";;;;;;;;;;;;;;;;;;;;;;;;;;;;;;;;;;;;;;;;;;;;;;;;;;;;;;;;;;;;;;;;;;;;;;;;;;;;;;;;;;;;;;;;;;"1700";"2014-10-06 10:51:14.215";"FINISHED";"UNPLEASANT";"failure";"454";"2014-10-06 10:51:12.499";"IAT_UPpractice.csv";"2";"moderate";;;;;;;;;;
"natm93";"1993";;"Windows 7";"Rachel's Experiment (SCIAT)";"1.0";"1";"1";"1";"1";"1";"1";"2014-10-06 10:41:29.558";"2014-10-06 10:56:50.407";"1";"1";"0";"1";"1";"175";"174";"module.IAT_practice1.exec-6232.IAT_Practice1";;;;;;;;;;;;;;;;;;;;;;;;;;;;;;;;;;;;;;;;;;;;;;;;;;;;;;;;;;;;;;;;;;;;;;;;;;;;;;;;;;;;;;;;;;"1713";"2014-10-06 10:51:15.947";"FINISHED";"UNPLEASANT";"success";"1176";"2014-10-06 10:51:14.231";"IAT_UPpractice.csv";"1";"bad";;;;;;;;;;
"natm93";"1993";;"Windows 7";"Rachel's Experiment (SCIAT)";"1.0";"1";"1";"1";"1";"1";"1";"2014-10-06 10:41:29.558";"2014-10-06 10:56:50.407";"1";"1";"0";"1";"1";"176";"175";"module.IAT_practice1.exec-6232.IAT_Practice1";;;;;;;;;;;;;;;;;;;;;;;;;;;;;;;;;;;;;;;;;;;;;;;;;;;;;;;;;;;;;;;;;;;;;;;;;;;;;;;;;;;;;;;;;;"1704";"2014-10-06 10:51:17.678";"FINISHED";"UNPLEASANT";"success";"634";"2014-10-06 10:51:15.962";"IAT_UPpractice.csv";"1";"revolting";;;;;;;;;;
"natm93";"1993";;"Windows 7";"Rachel's Experiment (SCIAT)";"1.0";"1";"1";"1";"1";"1";"1";"2014-10-06 10:41:29.558";"2014-10-06 10:56:50.407";"1";"1";"0";"1";"1";"177";"176";"module.IAT_practice1.exec-6232.IAT_Practice1";;;;;;;;;;;;;;;;;;;;;;;;;;;;;;;;;;;;;;;;;;;;;;;;;;;;;;;;;;;;;;;;;;;;;;;;;;;;;;;;;;;;;;;;;;"1713";"2014-10-06 10:51:19.410";"FINISHED";"UNPLEASANT";"success";"480";"2014-10-06 10:51:17.694";"IAT_UPpractice.csv";"1";"revolting";;;;;;;;;;
"natm93";"1993";;"Windows 7";"Rachel's Experiment (SCIAT)";"1.0";"1";"1";"1";"1";"1";"1";"2014-10-06 10:41:29.558";"2014-10-06 10:56:50.407";"1";"1";"0";"1";"1";"178";"177";"module.IAT_practice1.exec-6232.IAT_Practice1";;;;;;;;;;;;;;;;;;;;;;;;;;;;;;;;;;;;;;;;;;;;;;;;;;;;;;;;;;;;;;;;;;;;;;;;;;;;;;;;;;;;;;;;;;"1702";"2014-10-06 10:51:21.141";"FINISHED";"NEUTRAL";"success";"554";"2014-10-06 10:51:19.426";"IAT_UPpractice.csv";"2";"general";;;;;;;;;;
"natm93";"1993";;"Windows 7";"Rachel's Experiment (SCIAT)";"1.0";"1";"1";"1";"1";"1";"1";"2014-10-06 10:41:29.558";"2014-10-06 10:56:50.407";"1";"1";"0";"1";"1";"179";"178";"module.IAT_practice1.exec-6232.IAT_Practice1";;;;;;;;;;;;;;;;;;;;;;;;;;;;;;;;;;;;;;;;;;;;;;;;;;;;;;;;;;;;;;;;;;;;;;;;;;;;;;;;;;;;;;;;;;"1703";"2014-10-06 10:51:22.873";"FINISHED";"NEUTRAL";"success";"719";"2014-10-06 10:51:21.157";"IAT_UPpractice.csv";"2";"adequate";;;;;;;;;;
"natm93";"1993";;"Windows 7";"Rachel's Experiment (SCIAT)";"1.0";"1";"1";"1";"1";"1";"1";"2014-10-06 10:41:29.558";"2014-10-06 10:56:50.407";"1";"1";"0";"1";"1";"180";"179";"module.IAT_practice1.exec-6232.IAT_Practice1";;;;;;;;;;;;;;;;;;;;;;;;;;;;;;;;;;;;;;;;;;;;;;;;;;;;;;;;;;;;;;;;;;;;;;;;;;;;;;;;;;;;;;;;;;"1713";"2014-10-06 10:51:24.605";"FINISHED";"NEUTRAL";"success";"581";"2014-10-06 10:51:22.889";"IAT_UPpractice.csv";"2";"adequate";;;;;;;;;;
"natm93";"1993";;"Windows 7";"Rachel's Experiment (SCIAT)";"1.0";"1";"1";"1";"1";"1";"1";"2014-10-06 10:41:29.558";"2014-10-06 10:56:50.407";"1";"1";"0";"1";"1";"181";"180";"module.IAT_practice1.exec-6232.IAT_Practice1";;;;;;;;;;;;;;;;;;;;;;;;;;;;;;;;;;;;;;;;;;;;;;;;;;;;;;;;;;;;;;;;;;;;;;;;;;;;;;;;;;;;;;;;;;"1713";"2014-10-06 10:51:26.336";"FINISHED";"NEUTRAL";"success";"634";"2014-10-06 10:51:24.620";"IAT_UPpractice.csv";"2";"ordinary";;;;;;;;;;
"natm93";"1993";;"Windows 7";"Rachel's Experiment (SCIAT)";"1.0";"1";"1";"1";"1";"1";"1";"2014-10-06 10:41:29.558";"2014-10-06 10:56:50.407";"1";"1";"0";"1";"1";"182";"181";"module.IAT_practice1.exec-6232.IAT_Practice1";;;;;;;;;;;;;;;;;;;;;;;;;;;;;;;;;;;;;;;;;;;;;;;;;;;;;;;;;;;;;;;;;;;;;;;;;;;;;;;;;;;;;;;;;;"1713";"2014-10-06 10:51:28.068";"FINISHED";"NEUTRAL";"success";"598";"2014-10-06 10:51:26.352";"IAT_UPpractice.csv";"2";"general";;;;;;;;;;
"natm93";"1993";;"Windows 7";"Rachel's Experiment (SCIAT)";"1.0";"1";"1";"1";"1";"1";"1";"2014-10-06 10:41:29.558";"2014-10-06 10:56:50.407";"1";"1";"0";"1";"1";"183";"182";"module.IAT_practice1.exec-6232.IAT_Practice1";;;;;;;;;;;;;;;;;;;;;;;;;;;;;;;;;;;;;;;;;;;;;;;;;;;;;;;;;;;;;;;;;;;;;;;;;;;;;;;;;;;;;;;;;;"1710";"2014-10-06 10:51:29.815";"FINISHED";"NEUTRAL";"success";"728";"2014-10-06 10:51:28.099";"IAT_UPpractice.csv";"2";"average";;;;;;;;;;
"natm93";"1993";;"Windows 7";"Rachel's Experiment (SCIAT)";"1.0";"1";"1";"1";"1";"1";"1";"2014-10-06 10:41:29.558";"2014-10-06 10:56:50.407";"1";"1";"0";"1";"1";"184";"183";"module.IAT_Block1.exec-9503.IAT_block1";;;;;;;;;;;;;;;;;;;;;;;;;;;;;;;;;;;;;;;;;;;;;;;;;;;;;;;;;;;;;;;;;;;;;;"1708";"2014-10-06 10:51:44.525";"FINISHED";"UNPLEASANT";"success";"958";"2014-10-06 10:51:42.809";"IAT_UPUP.csv";"1";"A4";;;;;;;;;;;;;;;;;;;;;;;;;;;;;;
"natm93";"1993";;"Windows 7";"Rachel's Experiment (SCIAT)";"1.0";"1";"1";"1";"1";"1";"1";"2014-10-06 10:41:29.558";"2014-10-06 10:56:50.407";"1";"1";"0";"1";"1";"185";"184";"module.IAT_Block1.exec-9503.IAT_block1";;;;;;;;;;;;;;;;;;;;;;;;;;;;;;;;;;;;;;;;;;;;;;;;;;;;;;;;;;;;;;;;;;;;;;"1706";"2014-10-06 10:51:46.257";"FINISHED";"UNPLEASANT";"success";"656";"2014-10-06 10:51:44.541";"IAT_UPUP.csv";"1";"A3";;;;;;;;;;;;;;;;;;;;;;;;;;;;;;
"natm93";"1993";;"Windows 7";"Rachel's Experiment (SCIAT)";"1.0";"1";"1";"1";"1";"1";"1";"2014-10-06 10:41:29.558";"2014-10-06 10:56:50.407";"1";"1";"0";"1";"1";"186";"185";"module.IAT_Block1.exec-9503.IAT_block1";;;;;;;;;;;;;;;;;;;;;;;;;;;;;;;;;;;;;;;;;;;;;;;;;;;;;;;;;;;;;;;;;;;;;;"1713";"2014-10-06 10:51:47.988";"FINISHED";"UNPLEASANT";"success";"644";"2014-10-06 10:51:46.272";"IAT_UPUP.csv";"1";"A4";;;;;;;;;;;;;;;;;;;;;;;;;;;;;;
"natm93";"1993";;"Windows 7";"Rachel's Experiment (SCIAT)";"1.0";"1";"1";"1";"1";"1";"1";"2014-10-06 10:41:29.558";"2014-10-06 10:56:50.407";"1";"1";"0";"1";"1";"187";"186";"module.IAT_Block1.exec-9503.IAT_block1";;;;;;;;;;;;;;;;;;;;;;;;;;;;;;;;;;;;;;;;;;;;;;;;;;;;;;;;;;;;;;;;;;;;;;"1713";"2014-10-06 10:51:49.720";"FINISHED";"NEUTRAL";"success";"641";"2014-10-06 10:51:48.004";"IAT_UPUP.csv";"2";"average";;;;;;;;;;;;;;;;;;;;;;;;;;;;;;
"natm93";"1993";;"Windows 7";"Rachel's Experiment (SCIAT)";"1.0";"1";"1";"1";"1";"1";"1";"2014-10-06 10:41:29.558";"2014-10-06 10:56:50.407";"1";"1";"0";"1";"1";"188";"187";"module.IAT_Block1.exec-9503.IAT_block1";;;;;;;;;;;;;;;;;;;;;;;;;;;;;;;;;;;;;;;;;;;;;;;;;;;;;;;;;;;;;;;;;;;;;;"1713";"2014-10-06 10:51:51.452";"FINISHED";"NEUTRAL";"success";"493";"2014-10-06 10:51:49.736";"IAT_UPUP.csv";"2";"adequate";;;;;;;;;;;;;;;;;;;;;;;;;;;;;;
"natm93";"1993";;"Windows 7";"Rachel's Experiment (SCIAT)";"1.0";"1";"1";"1";"1";"1";"1";"2014-10-06 10:41:29.558";"2014-10-06 10:56:50.407";"1";"1";"0";"1";"1";"189";"188";"module.IAT_Block1.exec-9503.IAT_block1";;;;;;;;;;;;;;;;;;;;;;;;;;;;;;;;;;;;;;;;;;;;;;;;;;;;;;;;;;;;;;;;;;;;;;"1706";"2014-10-06 10:51:53.183";"FINISHED";"UNPLEASANT";"success";"691";"2014-10-06 10:51:51.467";"IAT_UPUP.csv";"1";"A1";;;;;;;;;;;;;;;;;;;;;;;;;;;;;;
"natm93";"1993";;"Windows 7";"Rachel's Experiment (SCIAT)";"1.0";"1";"1";"1";"1";"1";"1";"2014-10-06 10:41:29.558";"2014-10-06 10:56:50.407";"1";"1";"0";"1";"1";"190";"189";"module.IAT_Block1.exec-9503.IAT_block1";;;;;;;;;;;;;;;;;;;;;;;;;;;;;;;;;;;;;;;;;;;;;;;;;;;;;;;;;;;;;;;;;;;;;;"1704";"2014-10-06 10:51:54.915";"FINISHED";"UNPLEASANT";"success";"557";"2014-10-06 10:51:53.199";"IAT_UPUP.csv";"1";"A2";;;;;;;;;;;;;;;;;;;;;;;;;;;;;;
"natm93";"1993";;"Windows 7";"Rachel's Experiment (SCIAT)";"1.0";"1";"1";"1";"1";"1";"1";"2014-10-06 10:41:29.558";"2014-10-06 10:56:50.407";"1";"1";"0";"1";"1";"191";"190";"module.IAT_Block1.exec-9503.IAT_block1";;;;;;;;;;;;;;;;;;;;;;;;;;;;;;;;;;;;;;;;;;;;;;;;;;;;;;;;;;;;;;;;;;;;;;"1713";"2014-10-06 10:51:56.646";"FINISHED";"UNPLEASANT";"success";"435";"2014-10-06 10:51:54.930";"IAT_UPUP.csv";"1";"A1";;;;;;;;;;;;;;;;;;;;;;;;;;;;;;
"natm93";"1993";;"Windows 7";"Rachel's Experiment (SCIAT)";"1.0";"1";"1";"1";"1";"1";"1";"2014-10-06 10:41:29.558";"2014-10-06 10:56:50.407";"1";"1";"0";"1";"1";"192";"191";"module.IAT_Block1.exec-9503.IAT_block1";;;;;;;;;;;;;;;;;;;;;;;;;;;;;;;;;;;;;;;;;;;;;;;;;;;;;;;;;;;;;;;;;;;;;;"1713";"2014-10-06 10:51:58.378";"FINISHED";"UNPLEASANT";"failure";"551";"2014-10-06 10:51:56.662";"IAT_UPUP.csv";"2";"adequate";;;;;;;;;;;;;;;;;;;;;;;;;;;;;;
"natm93";"1993";;"Windows 7";"Rachel's Experiment (SCIAT)";"1.0";"1";"1";"1";"1";"1";"1";"2014-10-06 10:41:29.558";"2014-10-06 10:56:50.407";"1";"1";"0";"1";"1";"193";"192";"module.IAT_Block1.exec-9503.IAT_block1";;;;;;;;;;;;;;;;;;;;;;;;;;;;;;;;;;;;;;;;;;;;;;;;;;;;;;;;;;;;;;;;;;;;;;"1703";"2014-10-06 10:52:00.109";"FINISHED";"UNPLEASANT";"failure";"985";"2014-10-06 10:51:58.393";"IAT_UPUP.csv";"2";"undefined";;;;;;;;;;;;;;;;;;;;;;;;;;;;;;
"natm93";"1993";;"Windows 7";"Rachel's Experiment (SCIAT)";"1.0";"1";"1";"1";"1";"1";"1";"2014-10-06 10:41:29.558";"2014-10-06 10:56:50.407";"1";"1";"0";"1";"1";"194";"193";"module.IAT_Block1.exec-9503.IAT_block1";;;;;;;;;;;;;;;;;;;;;;;;;;;;;;;;;;;;;;;;;;;;;;;;;;;;;;;;;;;;;;;;;;;;;;"1714";"2014-10-06 10:52:01.841";"FINISHED";"UNPLEASANT";"success";"576";"2014-10-06 10:52:00.125";"IAT_UPUP.csv";"1";"A1";;;;;;;;;;;;;;;;;;;;;;;;;;;;;;
"natm93";"1993";;"Windows 7";"Rachel's Experiment (SCIAT)";"1.0";"1";"1";"1";"1";"1";"1";"2014-10-06 10:41:29.558";"2014-10-06 10:56:50.407";"1";"1";"0";"1";"1";"195";"194";"module.IAT_Block1.exec-9503.IAT_block1";;;;;;;;;;;;;;;;;;;;;;;;;;;;;;;;;;;;;;;;;;;;;;;;;;;;;;;;;;;;;;;;;;;;;;"1713";"2014-10-06 10:52:03.572";"FINISHED";"UNPLEASANT";"success";"636";"2014-10-06 10:52:01.856";"IAT_UPUP.csv";"1";"A3";;;;;;;;;;;;;;;;;;;;;;;;;;;;;;
"natm93";"1993";;"Windows 7";"Rachel's Experiment (SCIAT)";"1.0";"1";"1";"1";"1";"1";"1";"2014-10-06 10:41:29.558";"2014-10-06 10:56:50.407";"1";"1";"0";"1";"1";"196";"195";"module.IAT_Block1.exec-9503.IAT_block1";;;;;;;;;;;;;;;;;;;;;;;;;;;;;;;;;;;;;;;;;;;;;;;;;;;;;;;;;;;;;;;;;;;;;;"1713";"2014-10-06 10:52:05.304";"FINISHED";"NEUTRAL";"success";"488";"2014-10-06 10:52:03.588";"IAT_UPUP.csv";"2";"general";;;;;;;;;;;;;;;;;;;;;;;;;;;;;;
"natm93";"1993";;"Windows 7";"Rachel's Experiment (SCIAT)";"1.0";"1";"1";"1";"1";"1";"1";"2014-10-06 10:41:29.558";"2014-10-06 10:56:50.407";"1";"1";"0";"1";"1";"197";"196";"module.IAT_Block1.exec-9503.IAT_block1";;;;;;;;;;;;;;;;;;;;;;;;;;;;;;;;;;;;;;;;;;;;;;;;;;;;;;;;;;;;;;;;;;;;;;"1713";"2014-10-06 10:52:07.036";"FINISHED";"NEUTRAL";"success";"773";"2014-10-06 10:52:05.320";"IAT_UPUP.csv";"2";"moderate";;;;;;;;;;;;;;;;;;;;;;;;;;;;;;
"natm93";"1993";;"Windows 7";"Rachel's Experiment (SCIAT)";"1.0";"1";"1";"1";"1";"1";"1";"2014-10-06 10:41:29.558";"2014-10-06 10:56:50.407";"1";"1";"0";"1";"1";"198";"197";"module.IAT_Block1.exec-9503.IAT_block1";;;;;;;;;;;;;;;;;;;;;;;;;;;;;;;;;;;;;;;;;;;;;;;;;;;;;;;;;;;;;;;;;;;;;;"1713";"2014-10-06 10:52:08.767";"FINISHED";"NEUTRAL";"success";"489";"2014-10-06 10:52:07.051";"IAT_UPUP.csv";"2";"ordinary";;;;;;;;;;;;;;;;;;;;;;;;;;;;;;
"natm93";"1993";;"Windows 7";"Rachel's Experiment (SCIAT)";"1.0";"1";"1";"1";"1";"1";"1";"2014-10-06 10:41:29.558";"2014-10-06 10:56:50.407";"1";"1";"0";"1";"1";"199";"198";"module.IAT_Block1.exec-9503.IAT_block1";;;;;;;;;;;;;;;;;;;;;;;;;;;;;;;;;;;;;;;;;;;;;;;;;;;;;;;;;;;;;;;;;;;;;;"1713";"2014-10-06 10:52:10.499";"FINISHED";"UNPLEASANT";"success";"510";"2014-10-06 10:52:08.783";"IAT_UPUP.csv";"1";"A2";;;;;;;;;;;;;;;;;;;;;;;;;;;;;;
"natm93";"1993";;"Windows 7";"Rachel's Experiment (SCIAT)";"1.0";"1";"1";"1";"1";"1";"1";"2014-10-06 10:41:29.558";"2014-10-06 10:56:50.407";"1";"1";"0";"1";"1";"200";"199";"module.IAT_Block1.exec-9503.IAT_block1";;;;;;;;;;;;;;;;;;;;;;;;;;;;;;;;;;;;;;;;;;;;;;;;;;;;;;;;;;;;;;;;;;;;;;"1710";"2014-10-06 10:52:12.230";"FINISHED";"UNPLEASANT";"success";"495";"2014-10-06 10:52:10.514";"IAT_UPUP.csv";"1";"A4";;;;;;;;;;;;;;;;;;;;;;;;;;;;;;
"natm93";"1993";;"Windows 7";"Rachel's Experiment (SCIAT)";"1.0";"1";"1";"1";"1";"1";"1";"2014-10-06 10:41:29.558";"2014-10-06 10:56:50.407";"1";"1";"0";"1";"1";"201";"200";"module.IAT_Block1.exec-9503.IAT_block1";;;;;;;;;;;;;;;;;;;;;;;;;;;;;;;;;;;;;;;;;;;;;;;;;;;;;;;;;;;;;;;;;;;;;;"1706";"2014-10-06 10:52:13.962";"FINISHED";"NEUTRAL";"success";"503";"2014-10-06 10:52:12.246";"IAT_UPUP.csv";"2";"general";;;;;;;;;;;;;;;;;;;;;;;;;;;;;;
"natm93";"1993";;"Windows 7";"Rachel's Experiment (SCIAT)";"1.0";"1";"1";"1";"1";"1";"1";"2014-10-06 10:41:29.558";"2014-10-06 10:56:50.407";"1";"1";"0";"1";"1";"202";"201";"module.IAT_Block1.exec-9503.IAT_block1";;;;;;;;;;;;;;;;;;;;;;;;;;;;;;;;;;;;;;;;;;;;;;;;;;;;;;;;;;;;;;;;;;;;;;"1714";"2014-10-06 10:52:15.693";"FINISHED";"NEUTRAL";"success";"515";"2014-10-06 10:52:13.977";"IAT_UPUP.csv";"2";"general";;;;;;;;;;;;;;;;;;;;;;;;;;;;;;
"natm93";"1993";;"Windows 7";"Rachel's Experiment (SCIAT)";"1.0";"1";"1";"1";"1";"1";"1";"2014-10-06 10:41:29.558";"2014-10-06 10:56:50.407";"1";"1";"0";"1";"1";"203";"202";"module.IAT_Block1.exec-9503.IAT_block1";;;;;;;;;;;;;;;;;;;;;;;;;;;;;;;;;;;;;;;;;;;;;;;;;;;;;;;;;;;;;;;;;;;;;;"1707";"2014-10-06 10:52:17.425";"FINISHED";"NEUTRAL";"failure";"313";"2014-10-06 10:52:15.709";"IAT_UPUP.csv";"1";"A0";;;;;;;;;;;;;;;;;;;;;;;;;;;;;;
"natm93";"1993";;"Windows 7";"Rachel's Experiment (SCIAT)";"1.0";"1";"1";"1";"1";"1";"1";"2014-10-06 10:41:29.558";"2014-10-06 10:56:50.407";"1";"1";"0";"1";"1";"204";"203";"module.IAT_Block1.exec-9503.IAT_block1";;;;;;;;;;;;;;;;;;;;;;;;;;;;;;;;;;;;;;;;;;;;;;;;;;;;;;;;;;;;;;;;;;;;;;"1713";"2014-10-06 10:52:19.156";"FINISHED";"UNPLEASANT";"success";"612";"2014-10-06 10:52:17.440";"IAT_UPUP.csv";"1";"A2";;;;;;;;;;;;;;;;;;;;;;;;;;;;;;
"natm93";"1993";;"Windows 7";"Rachel's Experiment (SCIAT)";"1.0";"1";"1";"1";"1";"1";"1";"2014-10-06 10:41:29.558";"2014-10-06 10:56:50.407";"1";"1";"0";"1";"1";"205";"204";"module.IAT_Block1.exec-9503.IAT_block1";;;;;;;;;;;;;;;;;;;;;;;;;;;;;;;;;;;;;;;;;;;;;;;;;;;;;;;;;;;;;;;;;;;;;;"1713";"2014-10-06 10:52:20.888";"FINISHED";"NEUTRAL";"success";"992";"2014-10-06 10:52:19.172";"IAT_UPUP.csv";"2";"undefined";;;;;;;;;;;;;;;;;;;;;;;;;;;;;;
"natm93";"1993";;"Windows 7";"Rachel's Experiment (SCIAT)";"1.0";"1";"1";"1";"1";"1";"1";"2014-10-06 10:41:29.558";"2014-10-06 10:56:50.407";"1";"1";"0";"1";"1";"206";"205";"module.IAT_Block1.exec-9503.IAT_block1";;;;;;;;;;;;;;;;;;;;;;;;;;;;;;;;;;;;;;;;;;;;;;;;;;;;;;;;;;;;;;;;;;;;;;"1713";"2014-10-06 10:52:22.620";"FINISHED";"NEUTRAL";"success";"572";"2014-10-06 10:52:20.904";"IAT_UPUP.csv";"2";"adequate";;;;;;;;;;;;;;;;;;;;;;;;;;;;;;
"natm93";"1993";;"Windows 7";"Rachel's Experiment (SCIAT)";"1.0";"1";"1";"1";"1";"1";"1";"2014-10-06 10:41:29.558";"2014-10-06 10:56:50.407";"1";"1";"0";"1";"1";"207";"206";"module.IAT_Block1.exec-9503.IAT_block1";;;;;;;;;;;;;;;;;;;;;;;;;;;;;;;;;;;;;;;;;;;;;;;;;;;;;;;;;;;;;;;;;;;;;;"1713";"2014-10-06 10:52:24.351";"FINISHED";"NEUTRAL";"success";"401";"2014-10-06 10:52:22.635";"IAT_UPUP.csv";"2";"average";;;;;;;;;;;;;;;;;;;;;;;;;;;;;;
"natm93";"1993";;"Windows 7";"Rachel's Experiment (SCIAT)";"1.0";"1";"1";"1";"1";"1";"1";"2014-10-06 10:41:29.558";"2014-10-06 10:56:50.407";"1";"1";"0";"1";"1";"208";"207";"module.IAT_Block1.exec-9503.IAT_block1";;;;;;;;;;;;;;;;;;;;;;;;;;;;;;;;;;;;;;;;;;;;;;;;;;;;;;;;;;;;;;;;;;;;;;"1713";"2014-10-06 10:52:26.083";"FINISHED";"NEUTRAL";"success";"437";"2014-10-06 10:52:24.367";"IAT_UPUP.csv";"2";"ordinary";;;;;;;;;;;;;;;;;;;;;;;;;;;;;;
"natm93";"1993";;"Windows 7";"Rachel's Experiment (SCIAT)";"1.0";"1";"1";"1";"1";"1";"1";"2014-10-06 10:41:29.558";"2014-10-06 10:56:50.407";"1";"1";"0";"1";"1";"209";"208";"module.IAT_Block1.exec-9503.IAT_block1";;;;;;;;;;;;;;;;;;;;;;;;;;;;;;;;;;;;;;;;;;;;;;;;;;;;;;;;;;;;;;;;;;;;;;"1702";"2014-10-06 10:52:27.814";"FINISHED";"NEUTRAL";"failure";"670";"2014-10-06 10:52:26.098";"IAT_UPUP.csv";"1";"A5";;;;;;;;;;;;;;;;;;;;;;;;;;;;;;
"natm93";"1993";;"Windows 7";"Rachel's Experiment (SCIAT)";"1.0";"1";"1";"1";"1";"1";"1";"2014-10-06 10:41:29.558";"2014-10-06 10:56:50.407";"1";"1";"0";"1";"1";"210";"209";"module.IAT_Block1.exec-9503.IAT_block1";;;;;;;;;;;;;;;;;;;;;;;;;;;;;;;;;;;;;;;;;;;;;;;;;;;;;;;;;;;;;;;;;;;;;;"1711";"2014-10-06 10:52:29.546";"FINISHED";"UNPLEASANT";"success";"667";"2014-10-06 10:52:27.830";"IAT_UPUP.csv";"1";"A5";;;;;;;;;;;;;;;;;;;;;;;;;;;;;;
"natm93";"1993";;"Windows 7";"Rachel's Experiment (SCIAT)";"1.0";"1";"1";"1";"1";"1";"1";"2014-10-06 10:41:29.558";"2014-10-06 10:56:50.407";"1";"1";"0";"1";"1";"211";"210";"module.IAT_Block1.exec-9503.IAT_block1";;;;;;;;;;;;;;;;;;;;;;;;;;;;;;;;;;;;;;;;;;;;;;;;;;;;;;;;;;;;;;;;;;;;;;"1714";"2014-10-06 10:52:31.277";"FINISHED";"UNPLEASANT";"success";"707";"2014-10-06 10:52:29.561";"IAT_UPUP.csv";"1";"A2";;;;;;;;;;;;;;;;;;;;;;;;;;;;;;
"natm93";"1993";;"Windows 7";"Rachel's Experiment (SCIAT)";"1.0";"1";"1";"1";"1";"1";"1";"2014-10-06 10:41:29.558";"2014-10-06 10:56:50.407";"1";"1";"0";"1";"1";"212";"211";"module.IAT_Block1.exec-9503.IAT_block1";;;;;;;;;;;;;;;;;;;;;;;;;;;;;;;;;;;;;;;;;;;;;;;;;;;;;;;;;;;;;;;;;;;;;;"1714";"2014-10-06 10:52:33.009";"FINISHED";"NEUTRAL";"success";"663";"2014-10-06 10:52:31.293";"IAT_UPUP.csv";"2";"ordinary";;;;;;;;;;;;;;;;;;;;;;;;;;;;;;
"natm93";"1993";;"Windows 7";"Rachel's Experiment (SCIAT)";"1.0";"1";"1";"1";"1";"1";"1";"2014-10-06 10:41:29.558";"2014-10-06 10:56:50.407";"1";"1";"0";"1";"1";"213";"212";"module.IAT_Block1.exec-9503.IAT_block1";;;;;;;;;;;;;;;;;;;;;;;;;;;;;;;;;;;;;;;;;;;;;;;;;;;;;;;;;;;;;;;;;;;;;;"1715";"2014-10-06 10:52:34.731";"FINISHED";"UNPLEASANT";"success";"643";"2014-10-06 10:52:33.024";"IAT_UPUP.csv";"1";"A5";;;;;;;;;;;;;;;;;;;;;;;;;;;;;;
"natm93";"1993";;"Windows 7";"Rachel's Experiment (SCIAT)";"1.0";"1";"1";"1";"1";"1";"1";"2014-10-06 10:41:29.558";"2014-10-06 10:56:50.407";"1";"1";"0";"1";"1";"214";"213";"module.IAT_Block1.exec-9503.IAT_block1";;;;;;;;;;;;;;;;;;;;;;;;;;;;;;;;;;;;;;;;;;;;;;;;;;;;;;;;;;;;;;;;;;;;;;"1701";"2014-10-06 10:52:36.462";"FINISHED";"NEUTRAL";"success";"798";"2014-10-06 10:52:34.741";"IAT_UPUP.csv";"2";"average";;;;;;;;;;;;;;;;;;;;;;;;;;;;;;
"natm93";"1993";;"Windows 7";"Rachel's Experiment (SCIAT)";"1.0";"1";"1";"1";"1";"1";"1";"2014-10-06 10:41:29.558";"2014-10-06 10:56:50.407";"1";"1";"0";"1";"1";"215";"214";"module.IAT_Block1.exec-9503.IAT_block1";;;;;;;;;;;;;;;;;;;;;;;;;;;;;;;;;;;;;;;;;;;;;;;;;;;;;;;;;;;;;;;;;;;;;;"1714";"2014-10-06 10:52:38.193";"FINISHED";"NEUTRAL";"success";"1327";"2014-10-06 10:52:36.477";"IAT_UPUP.csv";"2";"moderate";;;;;;;;;;;;;;;;;;;;;;;;;;;;;;
"natm93";"1993";;"Windows 7";"Rachel's Experiment (SCIAT)";"1.0";"1";"1";"1";"1";"1";"1";"2014-10-06 10:41:29.558";"2014-10-06 10:56:50.407";"1";"1";"0";"1";"1";"216";"215";"module.IAT_Block1.exec-9503.IAT_block1";;;;;;;;;;;;;;;;;;;;;;;;;;;;;;;;;;;;;;;;;;;;;;;;;;;;;;;;;;;;;;;;;;;;;;"1714";"2014-10-06 10:52:39.925";"FINISHED";"UNPLEASANT";"success";"715";"2014-10-06 10:52:38.209";"IAT_UPUP.csv";"1";"A5";;;;;;;;;;;;;;;;;;;;;;;;;;;;;;
"natm93";"1993";;"Windows 7";"Rachel's Experiment (SCIAT)";"1.0";"1";"1";"1";"1";"1";"1";"2014-10-06 10:41:29.558";"2014-10-06 10:56:50.407";"1";"1";"0";"1";"1";"217";"216";"module.IAT_Block1.exec-9503.IAT_block1";;;;;;;;;;;;;;;;;;;;;;;;;;;;;;;;;;;;;;;;;;;;;;;;;;;;;;;;;;;;;;;;;;;;;;"1714";"2014-10-06 10:52:41.656";"FINISHED";"UNPLEASANT";"success";"599";"2014-10-06 10:52:39.940";"IAT_UPUP.csv";"1";"horrible";;;;;;;;;;;;;;;;;;;;;;;;;;;;;;
"natm93";"1993";;"Windows 7";"Rachel's Experiment (SCIAT)";"1.0";"1";"1";"1";"1";"1";"1";"2014-10-06 10:41:29.558";"2014-10-06 10:56:50.407";"1";"1";"0";"1";"1";"218";"217";"module.IAT_Block1.exec-9503.IAT_block1";;;;;;;;;;;;;;;;;;;;;;;;;;;;;;;;;;;;;;;;;;;;;;;;;;;;;;;;;;;;;;;;;;;;;;"1713";"2014-10-06 10:52:43.388";"FINISHED";"NEUTRAL";"success";"779";"2014-10-06 10:52:41.672";"IAT_UPUP.csv";"2";"moderate";;;;;;;;;;;;;;;;;;;;;;;;;;;;;;
"natm93";"1993";;"Windows 7";"Rachel's Experiment (SCIAT)";"1.0";"1";"1";"1";"1";"1";"1";"2014-10-06 10:41:29.558";"2014-10-06 10:56:50.407";"1";"1";"0";"1";"1";"219";"218";"module.IAT_Block1.exec-9503.IAT_block1";;;;;;;;;;;;;;;;;;;;;;;;;;;;;;;;;;;;;;;;;;;;;;;;;;;;;;;;;;;;;;;;;;;;;;"1713";"2014-10-06 10:52:45.119";"FINISHED";"UNPLEASANT";"success";"592";"2014-10-06 10:52:43.403";"IAT_UPUP.csv";"1";"A0";;;;;;;;;;;;;;;;;;;;;;;;;;;;;;
"natm93";"1993";;"Windows 7";"Rachel's Experiment (SCIAT)";"1.0";"1";"1";"1";"1";"1";"1";"2014-10-06 10:41:29.558";"2014-10-06 10:56:50.407";"1";"1";"0";"1";"1";"220";"219";"module.IAT_Block1.exec-9503.IAT_block1";;;;;;;;;;;;;;;;;;;;;;;;;;;;;;;;;;;;;;;;;;;;;;;;;;;;;;;;;;;;;;;;;;;;;;"1713";"2014-10-06 10:52:46.851";"FINISHED";"NEUTRAL";"success";"468";"2014-10-06 10:52:45.135";"IAT_UPUP.csv";"2";"undefined";;;;;;;;;;;;;;;;;;;;;;;;;;;;;;
