"user.name";"user.yearOfBirth";"user.sex";"user.osName";"module.name";"module.version";"module.online.subject.code";"module.online.study.id";"module.online.module.nr";"module.online.group.nr";"session.id";"session.index";"session.startTime";"session.endTime";"session.completed";"session.node-2742.conditionType";"session.node-3386.blockOrder";"session.node-3386.IATorder";"session.node-3386.keyOrder";"trial.id";"trial.index";"trial.name";"trial.GoNoGo1.durationTime";"trial.GoNoGo1.endTime";"trial.GoNoGo1.Error Type";"trial.GoNoGo1.icon";"trial.GoNoGo1.location";"trial.GoNoGo1.outcome";"trial.GoNoGo1.response";"trial.GoNoGo1.result";"trial.GoNoGo1.RT";"trial.GoNoGo1.signal";"trial.GoNoGo1.startTime";"trial.GoNoGo1.stimulus type";"trial.GoNoGo2.durationTime";"trial.GoNoGo2.endTime";"trial.GoNoGo2.Error Type";"trial.GoNoGo2.icon";"trial.GoNoGo2.location";"trial.GoNoGo2.outcome";"trial.GoNoGo2.response";"trial.GoNoGo2.result";"trial.GoNoGo2.RT";"trial.GoNoGo2.signal";"trial.GoNoGo2.startTime";"trial.GoNoGo2.stimulus type";"trial.GoNoGo3.durationTime";"trial.GoNoGo3.endTime";"trial.GoNoGo3.Error Type";"trial.GoNoGo3.icon";"trial.GoNoGo3.location";"trial.GoNoGo3.outcome";"trial.GoNoGo3.response";"trial.GoNoGo3.result";"trial.GoNoGo3.RT";"trial.GoNoGo3.signal";"trial.GoNoGo3.startTime";"trial.GoNoGo3.stimulus type";"trial.GoNoGo4.durationTime";"trial.GoNoGo4.endTime";"trial.GoNoGo4.Error Type";"trial.GoNoGo4.icon";"trial.GoNoGo4.location";"trial.GoNoGo4.outcome";"trial.GoNoGo4.response";"trial.GoNoGo4.result";"trial.GoNoGo4.RT";"trial.GoNoGo4.signal";"trial.GoNoGo4.startTime";"trial.GoNoGo4.stimulus type";"trial.GoNoGo_Practice.durationTime";"trial.GoNoGo_Practice.endTime";"trial.GoNoGo_Practice.icon";"trial.GoNoGo_Practice.location";"trial.GoNoGo_Practice.outcome";"trial.GoNoGo_Practice.response";"trial.GoNoGo_Practice.result";"trial.GoNoGo_Practice.RT";"trial.GoNoGo_Practice.signal";"trial.GoNoGo_Practice.startTime";"trial.GoNoGo_Practice.stimulus type";"trial.GoNoGo_Tutorial.durationTime";"trial.GoNoGo_Tutorial.endTime";"trial.GoNoGo_Tutorial.icon";"trial.GoNoGo_Tutorial.location";"trial.GoNoGo_Tutorial.outcome";"trial.GoNoGo_Tutorial.response";"trial.GoNoGo_Tutorial.result";"trial.GoNoGo_Tutorial.RT";"trial.GoNoGo_Tutorial.signal";"trial.GoNoGo_Tutorial.startTime";"trial.IAT_block1.durationTime";"trial.IAT_block1.endTime";"trial.IAT_block1.outcome";"trial.IAT_block1.response";"trial.IAT_block1.result";"trial.IAT_block1.RT";"trial.IAT_block1.startTime";"trial.IAT_block1.Stimfile";"trial.IAT_block1.stimType";"trial.IAT_block1.word";"trial.IAT_block2.durationTime";"trial.IAT_block2.endTime";"trial.IAT_block2.outcome";"trial.IAT_block2.response";"trial.IAT_block2.result";"trial.IAT_block2.RT";"trial.IAT_block2.startTime";"trial.IAT_block2.Stimfile";"trial.IAT_block2.stimType";"trial.IAT_block2.word";"trial.IAT_Practice1.durationTime";"trial.IAT_Practice1.endTime";"trial.IAT_Practice1.outcome";"trial.IAT_Practice1.response";"trial.IAT_Practice1.result";"trial.IAT_Practice1.RT";"trial.IAT_Practice1.startTime";"trial.IAT_Practice1.Stimfile";"trial.IAT_Practice1.stimType";"trial.IAT_Practice1.word";"trial.IAT_practice2.durationTime";"trial.IAT_practice2.endTime";"trial.IAT_practice2.outcome";"trial.IAT_practice2.response";"trial.IAT_practice2.result";"trial.IAT_practice2.RT";"trial.IAT_practice2.startTime";"trial.IAT_practice2.Stimfile";"trial.IAT_practice2.stimType";"trial.IAT_practice2.word"
"zabaleta";"1994";;"Windows 7";"Rachel's Experiment (SCIAT)";"1.0";"1";"1";"1";"1";"1";"1";"2014-07-17 16:09:13.861";"2014-07-17 16:24:05.794";"1";"1";"1";"1";"0";"1";"0";"module.GoNoGotutorial.exec-8571.GoNoGo_Tutorial";;;;;;;;;;;;;;;;;;;;;;;;;;;;;;;;;;;;;;;;;;;;;;;;;;;;;;;;;;;;"3991";"2014-07-17 16:09:58.061";"leftResponse";"0";"FINISHED";"LEFT";"success";"740";"0";"2014-07-17 16:09:54.061";;;;;;;;;;;;;;;;;;;;;;;;;;;;;;;;;;;;;;;;
"zabaleta";"1994";;"Windows 7";"Rachel's Experiment (SCIAT)";"1.0";"1";"1";"1";"1";"1";"1";"2014-07-17 16:09:13.861";"2014-07-17 16:24:05.794";"1";"1";"1";"1";"0";"2";"1";"module.GoNoGotutorial.exec-8571.GoNoGo_Tutorial";;;;;;;;;;;;;;;;;;;;;;;;;;;;;;;;;;;;;;;;;;;;;;;;;;;;;;;;;;;;"3991";"2014-07-17 16:10:03.351";"rightResponse";"1";"FINISHED";"RIGHT";"success";"427";"0";"2014-07-17 16:09:59.351";;;;;;;;;;;;;;;;;;;;;;;;;;;;;;;;;;;;;;;;
"zabaleta";"1994";;"Windows 7";"Rachel's Experiment (SCIAT)";"1.0";"1";"1";"1";"1";"1";"1";"2014-07-17 16:09:13.861";"2014-07-17 16:24:05.794";"1";"1";"1";"1";"0";"3";"2";"module.GoNoGotutorial.exec-8571.GoNoGo_Tutorial";;;;;;;;;;;;;;;;;;;;;;;;;;;;;;;;;;;;;;;;;;;;;;;;;;;;;;;;;;;;"3991";"2014-07-17 16:10:08.651";"signalResponse";"0";"FINISHED";"NONE";"success";"0";"1";"2014-07-17 16:10:04.651";;;;;;;;;;;;;;;;;;;;;;;;;;;;;;;;;;;;;;;;
"zabaleta";"1994";;"Windows 7";"Rachel's Experiment (SCIAT)";"1.0";"1";"1";"1";"1";"1";"1";"2014-07-17 16:09:13.861";"2014-07-17 16:24:05.794";"1";"1";"1";"1";"0";"4";"3";"module.GoNoGopractice.exec-7974.GoNoGo_Practice";;;;;;;;;;;;;;;;;;;;;;;;;;;;;;;;;;;;;;;;;;;;;;;;;"1941";"2014-07-17 16:10:16.381";"18";"0";"FINISHED";"LEFT";"success";"354";"0";"2014-07-17 16:10:14.431";"3";;;;;;;;;;;;;;;;;;;;;;;;;;;;;;;;;;;;;;;;;;;;;;;;;;
"zabaleta";"1994";;"Windows 7";"Rachel's Experiment (SCIAT)";"1.0";"1";"1";"1";"1";"1";"1";"2014-07-17 16:09:13.861";"2014-07-17 16:24:05.794";"1";"1";"1";"1";"0";"5";"4";"module.GoNoGopractice.exec-7974.GoNoGo_Practice";;;;;;;;;;;;;;;;;;;;;;;;;;;;;;;;;;;;;;;;;;;;;;;;;"1941";"2014-07-17 16:10:19.621";"21";"1";"FINISHED";"RIGHT";"success";"298";"0";"2014-07-17 16:10:17.671";"3";;;;;;;;;;;;;;;;;;;;;;;;;;;;;;;;;;;;;;;;;;;;;;;;;;
"zabaleta";"1994";;"Windows 7";"Rachel's Experiment (SCIAT)";"1.0";"1";"1";"1";"1";"1";"1";"2014-07-17 16:09:13.861";"2014-07-17 16:24:05.794";"1";"1";"1";"1";"0";"6";"5";"module.GoNoGopractice.exec-7974.GoNoGo_Practice";;;;;;;;;;;;;;;;;;;;;;;;;;;;;;;;;;;;;;;;;;;;;;;;;"1940";"2014-07-17 16:10:22.861";"14";"1";"FINISHED";"RIGHT";"failure";"601";"1";"2014-07-17 16:10:20.911";"2";;;;;;;;;;;;;;;;;;;;;;;;;;;;;;;;;;;;;;;;;;;;;;;;;;
"zabaleta";"1994";;"Windows 7";"Rachel's Experiment (SCIAT)";"1.0";"1";"1";"1";"1";"1";"1";"2014-07-17 16:09:13.861";"2014-07-17 16:24:05.794";"1";"1";"1";"1";"0";"7";"6";"module.GoNoGopractice.exec-7974.GoNoGo_Practice";;;;;;;;;;;;;;;;;;;;;;;;;;;;;;;;;;;;;;;;;;;;;;;;;"1949";"2014-07-17 16:10:26.211";"26";"0";"FINISHED";"LEFT";"success";"532";"0";"2014-07-17 16:10:24.261";"3";;;;;;;;;;;;;;;;;;;;;;;;;;;;;;;;;;;;;;;;;;;;;;;;;;
"zabaleta";"1994";;"Windows 7";"Rachel's Experiment (SCIAT)";"1.0";"1";"1";"1";"1";"1";"1";"2014-07-17 16:09:13.861";"2014-07-17 16:24:05.794";"1";"1";"1";"1";"0";"8";"7";"module.GoNoGopractice.exec-7974.GoNoGo_Practice";;;;;;;;;;;;;;;;;;;;;;;;;;;;;;;;;;;;;;;;;;;;;;;;;"1941";"2014-07-17 16:10:29.451";"2";"0";"FINISHED";"LEFT";"success";"373";"0";"2014-07-17 16:10:27.501";"1";;;;;;;;;;;;;;;;;;;;;;;;;;;;;;;;;;;;;;;;;;;;;;;;;;
"zabaleta";"1994";;"Windows 7";"Rachel's Experiment (SCIAT)";"1.0";"1";"1";"1";"1";"1";"1";"2014-07-17 16:09:13.861";"2014-07-17 16:24:05.794";"1";"1";"1";"1";"0";"9";"8";"module.GoNoGopractice.exec-7974.GoNoGo_Practice";;;;;;;;;;;;;;;;;;;;;;;;;;;;;;;;;;;;;;;;;;;;;;;;;"1942";"2014-07-17 16:10:32.691";"30";"0";"FINISHED";"NONE";"success";"0";"1";"2014-07-17 16:10:30.741";"3";;;;;;;;;;;;;;;;;;;;;;;;;;;;;;;;;;;;;;;;;;;;;;;;;;
"zabaleta";"1994";;"Windows 7";"Rachel's Experiment (SCIAT)";"1.0";"1";"1";"1";"1";"1";"1";"2014-07-17 16:09:13.861";"2014-07-17 16:24:05.794";"1";"1";"1";"1";"0";"10";"9";"module.GoNoGopractice.exec-7974.GoNoGo_Practice";;;;;;;;;;;;;;;;;;;;;;;;;;;;;;;;;;;;;;;;;;;;;;;;;"1941";"2014-07-17 16:10:35.931";"6";"1";"FINISHED";"NONE";"success";"0";"1";"2014-07-17 16:10:33.981";"1";;;;;;;;;;;;;;;;;;;;;;;;;;;;;;;;;;;;;;;;;;;;;;;;;;
"zabaleta";"1994";;"Windows 7";"Rachel's Experiment (SCIAT)";"1.0";"1";"1";"1";"1";"1";"1";"2014-07-17 16:09:13.861";"2014-07-17 16:24:05.794";"1";"1";"1";"1";"0";"11";"10";"module.GoNoGopractice.exec-7974.GoNoGo_Practice";;;;;;;;;;;;;;;;;;;;;;;;;;;;;;;;;;;;;;;;;;;;;;;;;"1942";"2014-07-17 16:10:39.171";"34";"0";"FINISHED";"LEFT";"success";"414";"0";"2014-07-17 16:10:37.221";"3";;;;;;;;;;;;;;;;;;;;;;;;;;;;;;;;;;;;;;;;;;;;;;;;;;
"zabaleta";"1994";;"Windows 7";"Rachel's Experiment (SCIAT)";"1.0";"1";"1";"1";"1";"1";"1";"2014-07-17 16:09:13.861";"2014-07-17 16:24:05.794";"1";"1";"1";"1";"0";"12";"11";"module.GoNoGopractice.exec-7974.GoNoGo_Practice";;;;;;;;;;;;;;;;;;;;;;;;;;;;;;;;;;;;;;;;;;;;;;;;;"1941";"2014-07-17 16:10:42.411";"23";"1";"FINISHED";"RIGHT";"success";"357";"0";"2014-07-17 16:10:40.461";"3";;;;;;;;;;;;;;;;;;;;;;;;;;;;;;;;;;;;;;;;;;;;;;;;;;
"zabaleta";"1994";;"Windows 7";"Rachel's Experiment (SCIAT)";"1.0";"1";"1";"1";"1";"1";"1";"2014-07-17 16:09:13.861";"2014-07-17 16:24:05.794";"1";"1";"1";"1";"0";"13";"12";"module.GoNoGopractice.exec-7974.GoNoGo_Practice";;;;;;;;;;;;;;;;;;;;;;;;;;;;;;;;;;;;;;;;;;;;;;;;;"1941";"2014-07-17 16:10:45.651";"13";"0";"FINISHED";"NONE";"success";"0";"1";"2014-07-17 16:10:43.701";"2";;;;;;;;;;;;;;;;;;;;;;;;;;;;;;;;;;;;;;;;;;;;;;;;;;
"zabaleta";"1994";;"Windows 7";"Rachel's Experiment (SCIAT)";"1.0";"1";"1";"1";"1";"1";"1";"2014-07-17 16:09:13.861";"2014-07-17 16:24:05.794";"1";"1";"1";"1";"0";"14";"13";"module.GoNoGopractice.exec-7974.GoNoGo_Practice";;;;;;;;;;;;;;;;;;;;;;;;;;;;;;;;;;;;;;;;;;;;;;;;;"1942";"2014-07-17 16:10:48.881";"3";"1";"FINISHED";"RIGHT";"success";"432";"0";"2014-07-17 16:10:46.931";"1";;;;;;;;;;;;;;;;;;;;;;;;;;;;;;;;;;;;;;;;;;;;;;;;;;
"zabaleta";"1994";;"Windows 7";"Rachel's Experiment (SCIAT)";"1.0";"1";"1";"1";"1";"1";"1";"2014-07-17 16:09:13.861";"2014-07-17 16:24:05.794";"1";"1";"1";"1";"0";"15";"14";"module.GoNoGopractice.exec-7974.GoNoGo_Practice";;;;;;;;;;;;;;;;;;;;;;;;;;;;;;;;;;;;;;;;;;;;;;;;;"1941";"2014-07-17 16:10:52.111";"27";"1";"FINISHED";"NONE";"success";"0";"1";"2014-07-17 16:10:50.161";"3";;;;;;;;;;;;;;;;;;;;;;;;;;;;;;;;;;;;;;;;;;;;;;;;;;
"zabaleta";"1994";;"Windows 7";"Rachel's Experiment (SCIAT)";"1.0";"1";"1";"1";"1";"1";"1";"2014-07-17 16:09:13.861";"2014-07-17 16:24:05.794";"1";"1";"1";"1";"0";"16";"15";"module.training_block1.exec-8494.GoNoGo1";"1249";"2014-07-17 16:11:01.961";"ST_correctStop";"4";"0";"FINISHED";"NONE";"success";"0";"1";"2014-07-17 16:11:00.711";"1";;;;;;;;;;;;;;;;;;;;;;;;;;;;;;;;;;;;;;;;;;;;;;;;;;;;;;;;;;;;;;;;;;;;;;;;;;;;;;;;;;;;;;;;;;;;;;;;;
"zabaleta";"1994";;"Windows 7";"Rachel's Experiment (SCIAT)";"1.0";"1";"1";"1";"1";"1";"1";"2014-07-17 16:09:13.861";"2014-07-17 16:24:05.794";"1";"1";"1";"1";"0";"17";"16";"module.training_block1.exec-8494.GoNoGo1";"1242";"2014-07-17 16:11:04.501";"ST_correctStop";"28";"0";"FINISHED";"NONE";"success";"0";"1";"2014-07-17 16:11:03.251";"3";;;;;;;;;;;;;;;;;;;;;;;;;;;;;;;;;;;;;;;;;;;;;;;;;;;;;;;;;;;;;;;;;;;;;;;;;;;;;;;;;;;;;;;;;;;;;;;;;
"zabaleta";"1994";;"Windows 7";"Rachel's Experiment (SCIAT)";"1.0";"1";"1";"1";"1";"1";"1";"2014-07-17 16:09:13.861";"2014-07-17 16:24:05.794";"1";"1";"1";"1";"0";"18";"17";"module.training_block1.exec-8494.GoNoGo1";"1242";"2014-07-17 16:11:07.041";"NST_correctLoc";"9";"1";"FINISHED";"RIGHT";"success";"371";"0";"2014-07-17 16:11:05.791";"2";;;;;;;;;;;;;;;;;;;;;;;;;;;;;;;;;;;;;;;;;;;;;;;;;;;;;;;;;;;;;;;;;;;;;;;;;;;;;;;;;;;;;;;;;;;;;;;;;
"zabaleta";"1994";;"Windows 7";"Rachel's Experiment (SCIAT)";"1.0";"1";"1";"1";"1";"1";"1";"2014-07-17 16:09:13.861";"2014-07-17 16:24:05.794";"1";"1";"1";"1";"0";"19";"18";"module.training_block1.exec-8494.GoNoGo1";"1241";"2014-07-17 16:11:09.571";"NST_correctLoc";"17";"0";"FINISHED";"LEFT";"success";"392";"0";"2014-07-17 16:11:08.321";"2";;;;;;;;;;;;;;;;;;;;;;;;;;;;;;;;;;;;;;;;;;;;;;;;;;;;;;;;;;;;;;;;;;;;;;;;;;;;;;;;;;;;;;;;;;;;;;;;;
"zabaleta";"1994";;"Windows 7";"Rachel's Experiment (SCIAT)";"1.0";"1";"1";"1";"1";"1";"1";"2014-07-17 16:09:13.861";"2014-07-17 16:24:05.794";"1";"1";"1";"1";"0";"20";"19";"module.training_block1.exec-8494.GoNoGo1";"1242";"2014-07-17 16:11:12.101";"ST_correctStop";"5";"1";"FINISHED";"NONE";"success";"0";"1";"2014-07-17 16:11:10.851";"1";;;;;;;;;;;;;;;;;;;;;;;;;;;;;;;;;;;;;;;;;;;;;;;;;;;;;;;;;;;;;;;;;;;;;;;;;;;;;;;;;;;;;;;;;;;;;;;;;
"zabaleta";"1994";;"Windows 7";"Rachel's Experiment (SCIAT)";"1.0";"1";"1";"1";"1";"1";"1";"2014-07-17 16:09:13.861";"2014-07-17 16:24:05.794";"1";"1";"1";"1";"0";"21";"20";"module.training_block1.exec-8494.GoNoGo1";"1242";"2014-07-17 16:11:14.631";"NST_correctLoc";"20";"0";"FINISHED";"LEFT";"success";"565";"0";"2014-07-17 16:11:13.381";"3";;;;;;;;;;;;;;;;;;;;;;;;;;;;;;;;;;;;;;;;;;;;;;;;;;;;;;;;;;;;;;;;;;;;;;;;;;;;;;;;;;;;;;;;;;;;;;;;;
"zabaleta";"1994";;"Windows 7";"Rachel's Experiment (SCIAT)";"1.0";"1";"1";"1";"1";"1";"1";"2014-07-17 16:09:13.861";"2014-07-17 16:24:05.794";"1";"1";"1";"1";"0";"22";"21";"module.training_block1.exec-8494.GoNoGo1";"1242";"2014-07-17 16:11:17.161";"NST_correctLoc";"12";"0";"FINISHED";"LEFT";"success";"459";"0";"2014-07-17 16:11:15.911";"2";;;;;;;;;;;;;;;;;;;;;;;;;;;;;;;;;;;;;;;;;;;;;;;;;;;;;;;;;;;;;;;;;;;;;;;;;;;;;;;;;;;;;;;;;;;;;;;;;
"zabaleta";"1994";;"Windows 7";"Rachel's Experiment (SCIAT)";"1.0";"1";"1";"1";"1";"1";"1";"2014-07-17 16:09:13.861";"2014-07-17 16:24:05.794";"1";"1";"1";"1";"0";"23";"22";"module.training_block1.exec-8494.GoNoGo1";"1241";"2014-07-17 16:11:19.691";"ST_correctStop";"7";"0";"FINISHED";"NONE";"success";"0";"1";"2014-07-17 16:11:18.441";"1";;;;;;;;;;;;;;;;;;;;;;;;;;;;;;;;;;;;;;;;;;;;;;;;;;;;;;;;;;;;;;;;;;;;;;;;;;;;;;;;;;;;;;;;;;;;;;;;;
"zabaleta";"1994";;"Windows 7";"Rachel's Experiment (SCIAT)";"1.0";"1";"1";"1";"1";"1";"1";"2014-07-17 16:09:13.861";"2014-07-17 16:24:05.794";"1";"1";"1";"1";"0";"24";"23";"module.training_block1.exec-8494.GoNoGo1";"1242";"2014-07-17 16:11:22.221";"ST_correctStop";"35";"0";"FINISHED";"NONE";"success";"0";"1";"2014-07-17 16:11:20.971";"3";;;;;;;;;;;;;;;;;;;;;;;;;;;;;;;;;;;;;;;;;;;;;;;;;;;;;;;;;;;;;;;;;;;;;;;;;;;;;;;;;;;;;;;;;;;;;;;;;
"zabaleta";"1994";;"Windows 7";"Rachel's Experiment (SCIAT)";"1.0";"1";"1";"1";"1";"1";"1";"2014-07-17 16:09:13.861";"2014-07-17 16:24:05.794";"1";"1";"1";"1";"0";"25";"24";"module.training_block1.exec-8494.GoNoGo1";"1240";"2014-07-17 16:11:24.751";"NST_correctLoc";"32";"0";"FINISHED";"LEFT";"success";"419";"0";"2014-07-17 16:11:23.501";"3";;;;;;;;;;;;;;;;;;;;;;;;;;;;;;;;;;;;;;;;;;;;;;;;;;;;;;;;;;;;;;;;;;;;;;;;;;;;;;;;;;;;;;;;;;;;;;;;;
"zabaleta";"1994";;"Windows 7";"Rachel's Experiment (SCIAT)";"1.0";"1";"1";"1";"1";"1";"1";"2014-07-17 16:09:13.861";"2014-07-17 16:24:05.794";"1";"1";"1";"1";"0";"26";"25";"module.training_block1.exec-8494.GoNoGo1";"1242";"2014-07-17 16:11:27.281";"NST_correctLoc";"25";"0";"FINISHED";"LEFT";"success";"371";"0";"2014-07-17 16:11:26.031";"3";;;;;;;;;;;;;;;;;;;;;;;;;;;;;;;;;;;;;;;;;;;;;;;;;;;;;;;;;;;;;;;;;;;;;;;;;;;;;;;;;;;;;;;;;;;;;;;;;
"zabaleta";"1994";;"Windows 7";"Rachel's Experiment (SCIAT)";"1.0";"1";"1";"1";"1";"1";"1";"2014-07-17 16:09:13.861";"2014-07-17 16:24:05.794";"1";"1";"1";"1";"0";"27";"26";"module.training_block1.exec-8494.GoNoGo1";"1242";"2014-07-17 16:11:29.811";"NST_correctLoc";"11";"0";"FINISHED";"LEFT";"success";"337";"0";"2014-07-17 16:11:28.561";"2";;;;;;;;;;;;;;;;;;;;;;;;;;;;;;;;;;;;;;;;;;;;;;;;;;;;;;;;;;;;;;;;;;;;;;;;;;;;;;;;;;;;;;;;;;;;;;;;;
"zabaleta";"1994";;"Windows 7";"Rachel's Experiment (SCIAT)";"1.0";"1";"1";"1";"1";"1";"1";"2014-07-17 16:09:13.861";"2014-07-17 16:24:05.794";"1";"1";"1";"1";"0";"28";"27";"module.training_block1.exec-8494.GoNoGo1";"1247";"2014-07-17 16:11:32.341";"ST_failedStop";"6";"0";"FINISHED";"LEFT";"failure";"348";"1";"2014-07-17 16:11:31.091";"1";;;;;;;;;;;;;;;;;;;;;;;;;;;;;;;;;;;;;;;;;;;;;;;;;;;;;;;;;;;;;;;;;;;;;;;;;;;;;;;;;;;;;;;;;;;;;;;;;
"zabaleta";"1994";;"Windows 7";"Rachel's Experiment (SCIAT)";"1.0";"1";"1";"1";"1";"1";"1";"2014-07-17 16:09:13.861";"2014-07-17 16:24:05.794";"1";"1";"1";"1";"0";"29";"28";"module.training_block1.exec-8494.GoNoGo1";"1242";"2014-07-17 16:11:34.871";"ST_correctStop";"19";"0";"FINISHED";"NONE";"success";"0";"1";"2014-07-17 16:11:33.621";"3";;;;;;;;;;;;;;;;;;;;;;;;;;;;;;;;;;;;;;;;;;;;;;;;;;;;;;;;;;;;;;;;;;;;;;;;;;;;;;;;;;;;;;;;;;;;;;;;;
"zabaleta";"1994";;"Windows 7";"Rachel's Experiment (SCIAT)";"1.0";"1";"1";"1";"1";"1";"1";"2014-07-17 16:09:13.861";"2014-07-17 16:24:05.794";"1";"1";"1";"1";"0";"30";"29";"module.training_block1.exec-8494.GoNoGo1";"1247";"2014-07-17 16:11:37.401";"ST_correctStop";"34";"0";"FINISHED";"NONE";"success";"0";"1";"2014-07-17 16:11:36.151";"3";;;;;;;;;;;;;;;;;;;;;;;;;;;;;;;;;;;;;;;;;;;;;;;;;;;;;;;;;;;;;;;;;;;;;;;;;;;;;;;;;;;;;;;;;;;;;;;;;
"zabaleta";"1994";;"Windows 7";"Rachel's Experiment (SCIAT)";"1.0";"1";"1";"1";"1";"1";"1";"2014-07-17 16:09:13.861";"2014-07-17 16:24:05.794";"1";"1";"1";"1";"0";"31";"30";"module.training_block1.exec-8494.GoNoGo1";"1247";"2014-07-17 16:11:39.931";"ST_correctStop";"2";"1";"FINISHED";"NONE";"success";"0";"1";"2014-07-17 16:11:38.681";"1";;;;;;;;;;;;;;;;;;;;;;;;;;;;;;;;;;;;;;;;;;;;;;;;;;;;;;;;;;;;;;;;;;;;;;;;;;;;;;;;;;;;;;;;;;;;;;;;;
"zabaleta";"1994";;"Windows 7";"Rachel's Experiment (SCIAT)";"1.0";"1";"1";"1";"1";"1";"1";"2014-07-17 16:09:13.861";"2014-07-17 16:24:05.794";"1";"1";"1";"1";"0";"32";"31";"module.training_block1.exec-8494.GoNoGo1";"1247";"2014-07-17 16:11:42.451";"ST_correctStop";"23";"0";"FINISHED";"NONE";"success";"0";"1";"2014-07-17 16:11:41.201";"3";;;;;;;;;;;;;;;;;;;;;;;;;;;;;;;;;;;;;;;;;;;;;;;;;;;;;;;;;;;;;;;;;;;;;;;;;;;;;;;;;;;;;;;;;;;;;;;;;
"zabaleta";"1994";;"Windows 7";"Rachel's Experiment (SCIAT)";"1.0";"1";"1";"1";"1";"1";"1";"2014-07-17 16:09:13.861";"2014-07-17 16:24:05.794";"1";"1";"1";"1";"0";"33";"32";"module.training_block1.exec-8494.GoNoGo1";"1241";"2014-07-17 16:11:44.991";"ST_correctStop";"8";"0";"FINISHED";"NONE";"success";"0";"1";"2014-07-17 16:11:43.741";"1";;;;;;;;;;;;;;;;;;;;;;;;;;;;;;;;;;;;;;;;;;;;;;;;;;;;;;;;;;;;;;;;;;;;;;;;;;;;;;;;;;;;;;;;;;;;;;;;;
"zabaleta";"1994";;"Windows 7";"Rachel's Experiment (SCIAT)";"1.0";"1";"1";"1";"1";"1";"1";"2014-07-17 16:09:13.861";"2014-07-17 16:24:05.794";"1";"1";"1";"1";"0";"34";"33";"module.training_block1.exec-8494.GoNoGo1";"1242";"2014-07-17 16:11:47.521";"NST_correctLoc";"29";"0";"FINISHED";"LEFT";"success";"459";"0";"2014-07-17 16:11:46.271";"3";;;;;;;;;;;;;;;;;;;;;;;;;;;;;;;;;;;;;;;;;;;;;;;;;;;;;;;;;;;;;;;;;;;;;;;;;;;;;;;;;;;;;;;;;;;;;;;;;
"zabaleta";"1994";;"Windows 7";"Rachel's Experiment (SCIAT)";"1.0";"1";"1";"1";"1";"1";"1";"2014-07-17 16:09:13.861";"2014-07-17 16:24:05.794";"1";"1";"1";"1";"0";"35";"34";"module.training_block1.exec-8494.GoNoGo1";"1242";"2014-07-17 16:11:50.051";"NST_correctLoc";"10";"1";"FINISHED";"RIGHT";"success";"433";"0";"2014-07-17 16:11:48.801";"2";;;;;;;;;;;;;;;;;;;;;;;;;;;;;;;;;;;;;;;;;;;;;;;;;;;;;;;;;;;;;;;;;;;;;;;;;;;;;;;;;;;;;;;;;;;;;;;;;
"zabaleta";"1994";;"Windows 7";"Rachel's Experiment (SCIAT)";"1.0";"1";"1";"1";"1";"1";"1";"2014-07-17 16:09:13.861";"2014-07-17 16:24:05.794";"1";"1";"1";"1";"0";"36";"35";"module.training_block1.exec-8494.GoNoGo1";"1242";"2014-07-17 16:11:52.581";"ST_correctStop";"18";"1";"FINISHED";"NONE";"success";"0";"1";"2014-07-17 16:11:51.331";"3";;;;;;;;;;;;;;;;;;;;;;;;;;;;;;;;;;;;;;;;;;;;;;;;;;;;;;;;;;;;;;;;;;;;;;;;;;;;;;;;;;;;;;;;;;;;;;;;;
"zabaleta";"1994";;"Windows 7";"Rachel's Experiment (SCIAT)";"1.0";"1";"1";"1";"1";"1";"1";"2014-07-17 16:09:13.861";"2014-07-17 16:24:05.794";"1";"1";"1";"1";"0";"37";"36";"module.training_block1.exec-8494.GoNoGo1";"1241";"2014-07-17 16:11:55.111";"ST_correctStop";"1";"1";"FINISHED";"NONE";"success";"0";"1";"2014-07-17 16:11:53.861";"1";;;;;;;;;;;;;;;;;;;;;;;;;;;;;;;;;;;;;;;;;;;;;;;;;;;;;;;;;;;;;;;;;;;;;;;;;;;;;;;;;;;;;;;;;;;;;;;;;
"zabaleta";"1994";;"Windows 7";"Rachel's Experiment (SCIAT)";"1.0";"1";"1";"1";"1";"1";"1";"2014-07-17 16:09:13.861";"2014-07-17 16:24:05.794";"1";"1";"1";"1";"0";"38";"37";"module.training_block1.exec-8494.GoNoGo1";"1247";"2014-07-17 16:11:57.621";"NST_correctLoc";"30";"1";"FINISHED";"RIGHT";"success";"396";"0";"2014-07-17 16:11:56.371";"3";;;;;;;;;;;;;;;;;;;;;;;;;;;;;;;;;;;;;;;;;;;;;;;;;;;;;;;;;;;;;;;;;;;;;;;;;;;;;;;;;;;;;;;;;;;;;;;;;
"zabaleta";"1994";;"Windows 7";"Rachel's Experiment (SCIAT)";"1.0";"1";"1";"1";"1";"1";"1";"2014-07-17 16:09:13.861";"2014-07-17 16:24:05.794";"1";"1";"1";"1";"0";"39";"38";"module.training_block1.exec-8494.GoNoGo1";"1247";"2014-07-17 16:12:00.151";"ST_correctStop";"27";"0";"FINISHED";"NONE";"success";"0";"1";"2014-07-17 16:11:58.901";"3";;;;;;;;;;;;;;;;;;;;;;;;;;;;;;;;;;;;;;;;;;;;;;;;;;;;;;;;;;;;;;;;;;;;;;;;;;;;;;;;;;;;;;;;;;;;;;;;;
"zabaleta";"1994";;"Windows 7";"Rachel's Experiment (SCIAT)";"1.0";"1";"1";"1";"1";"1";"1";"2014-07-17 16:09:13.861";"2014-07-17 16:24:05.794";"1";"1";"1";"1";"0";"40";"39";"module.training_block1.exec-8494.GoNoGo1";"1241";"2014-07-17 16:12:02.681";"NST_correctLoc";"24";"1";"FINISHED";"RIGHT";"success";"386";"0";"2014-07-17 16:12:01.431";"3";;;;;;;;;;;;;;;;;;;;;;;;;;;;;;;;;;;;;;;;;;;;;;;;;;;;;;;;;;;;;;;;;;;;;;;;;;;;;;;;;;;;;;;;;;;;;;;;;
"zabaleta";"1994";;"Windows 7";"Rachel's Experiment (SCIAT)";"1.0";"1";"1";"1";"1";"1";"1";"2014-07-17 16:09:13.861";"2014-07-17 16:24:05.794";"1";"1";"1";"1";"0";"41";"40";"module.training_block1.exec-8494.GoNoGo1";"1241";"2014-07-17 16:12:05.211";"NST_correctLoc";"16";"1";"FINISHED";"RIGHT";"success";"441";"0";"2014-07-17 16:12:03.961";"2";;;;;;;;;;;;;;;;;;;;;;;;;;;;;;;;;;;;;;;;;;;;;;;;;;;;;;;;;;;;;;;;;;;;;;;;;;;;;;;;;;;;;;;;;;;;;;;;;
"zabaleta";"1994";;"Windows 7";"Rachel's Experiment (SCIAT)";"1.0";"1";"1";"1";"1";"1";"1";"2014-07-17 16:09:13.861";"2014-07-17 16:24:05.794";"1";"1";"1";"1";"0";"42";"41";"module.training_block1.exec-8494.GoNoGo1";"1241";"2014-07-17 16:12:07.731";"NST_correctLoc";"14";"1";"FINISHED";"RIGHT";"success";"385";"0";"2014-07-17 16:12:06.481";"2";;;;;;;;;;;;;;;;;;;;;;;;;;;;;;;;;;;;;;;;;;;;;;;;;;;;;;;;;;;;;;;;;;;;;;;;;;;;;;;;;;;;;;;;;;;;;;;;;
"zabaleta";"1994";;"Windows 7";"Rachel's Experiment (SCIAT)";"1.0";"1";"1";"1";"1";"1";"1";"2014-07-17 16:09:13.861";"2014-07-17 16:24:05.794";"1";"1";"1";"1";"0";"43";"42";"module.training_block1.exec-8494.GoNoGo1";"1242";"2014-07-17 16:12:10.261";"NST_correctLoc";"22";"1";"FINISHED";"RIGHT";"success";"351";"0";"2014-07-17 16:12:09.011";"3";;;;;;;;;;;;;;;;;;;;;;;;;;;;;;;;;;;;;;;;;;;;;;;;;;;;;;;;;;;;;;;;;;;;;;;;;;;;;;;;;;;;;;;;;;;;;;;;;
"zabaleta";"1994";;"Windows 7";"Rachel's Experiment (SCIAT)";"1.0";"1";"1";"1";"1";"1";"1";"2014-07-17 16:09:13.861";"2014-07-17 16:24:05.794";"1";"1";"1";"1";"0";"44";"43";"module.training_block1.exec-8494.GoNoGo1";"1241";"2014-07-17 16:12:12.791";"NST_correctLoc";"21";"0";"FINISHED";"LEFT";"success";"356";"0";"2014-07-17 16:12:11.541";"3";;;;;;;;;;;;;;;;;;;;;;;;;;;;;;;;;;;;;;;;;;;;;;;;;;;;;;;;;;;;;;;;;;;;;;;;;;;;;;;;;;;;;;;;;;;;;;;;;
"zabaleta";"1994";;"Windows 7";"Rachel's Experiment (SCIAT)";"1.0";"1";"1";"1";"1";"1";"1";"2014-07-17 16:09:13.861";"2014-07-17 16:24:05.794";"1";"1";"1";"1";"0";"45";"44";"module.training_block1.exec-8494.GoNoGo1";"1242";"2014-07-17 16:12:15.321";"ST_correctStop";"33";"0";"FINISHED";"NONE";"success";"0";"1";"2014-07-17 16:12:14.071";"3";;;;;;;;;;;;;;;;;;;;;;;;;;;;;;;;;;;;;;;;;;;;;;;;;;;;;;;;;;;;;;;;;;;;;;;;;;;;;;;;;;;;;;;;;;;;;;;;;
"zabaleta";"1994";;"Windows 7";"Rachel's Experiment (SCIAT)";"1.0";"1";"1";"1";"1";"1";"1";"2014-07-17 16:09:13.861";"2014-07-17 16:24:05.794";"1";"1";"1";"1";"0";"46";"45";"module.training_block1.exec-8494.GoNoGo1";"1241";"2014-07-17 16:12:17.851";"ST_correctStop";"31";"1";"FINISHED";"NONE";"success";"0";"1";"2014-07-17 16:12:16.601";"3";;;;;;;;;;;;;;;;;;;;;;;;;;;;;;;;;;;;;;;;;;;;;;;;;;;;;;;;;;;;;;;;;;;;;;;;;;;;;;;;;;;;;;;;;;;;;;;;;
"zabaleta";"1994";;"Windows 7";"Rachel's Experiment (SCIAT)";"1.0";"1";"1";"1";"1";"1";"1";"2014-07-17 16:09:13.861";"2014-07-17 16:24:05.794";"1";"1";"1";"1";"0";"47";"46";"module.training_block1.exec-8494.GoNoGo1";"1241";"2014-07-17 16:12:20.381";"NST_correctLoc";"15";"0";"FINISHED";"LEFT";"success";"334";"0";"2014-07-17 16:12:19.131";"2";;;;;;;;;;;;;;;;;;;;;;;;;;;;;;;;;;;;;;;;;;;;;;;;;;;;;;;;;;;;;;;;;;;;;;;;;;;;;;;;;;;;;;;;;;;;;;;;;
"zabaleta";"1994";;"Windows 7";"Rachel's Experiment (SCIAT)";"1.0";"1";"1";"1";"1";"1";"1";"2014-07-17 16:09:13.861";"2014-07-17 16:24:05.794";"1";"1";"1";"1";"0";"48";"47";"module.training_block1.exec-8494.GoNoGo1";"1247";"2014-07-17 16:12:22.911";"NST_correctLoc";"13";"0";"FINISHED";"LEFT";"success";"346";"0";"2014-07-17 16:12:21.661";"2";;;;;;;;;;;;;;;;;;;;;;;;;;;;;;;;;;;;;;;;;;;;;;;;;;;;;;;;;;;;;;;;;;;;;;;;;;;;;;;;;;;;;;;;;;;;;;;;;
"zabaleta";"1994";;"Windows 7";"Rachel's Experiment (SCIAT)";"1.0";"1";"1";"1";"1";"1";"1";"2014-07-17 16:09:13.861";"2014-07-17 16:24:05.794";"1";"1";"1";"1";"0";"49";"48";"module.training_block1.exec-8494.GoNoGo1";"1247";"2014-07-17 16:12:25.421";"NST_correctLoc";"26";"1";"FINISHED";"RIGHT";"success";"444";"0";"2014-07-17 16:12:24.171";"3";;;;;;;;;;;;;;;;;;;;;;;;;;;;;;;;;;;;;;;;;;;;;;;;;;;;;;;;;;;;;;;;;;;;;;;;;;;;;;;;;;;;;;;;;;;;;;;;;
"zabaleta";"1994";;"Windows 7";"Rachel's Experiment (SCIAT)";"1.0";"1";"1";"1";"1";"1";"1";"2014-07-17 16:09:13.861";"2014-07-17 16:24:05.794";"1";"1";"1";"1";"0";"50";"49";"module.training_block1.exec-8494.GoNoGo1";"1247";"2014-07-17 16:12:27.951";"ST_correctStop";"3";"0";"FINISHED";"NONE";"success";"0";"1";"2014-07-17 16:12:26.701";"1";;;;;;;;;;;;;;;;;;;;;;;;;;;;;;;;;;;;;;;;;;;;;;;;;;;;;;;;;;;;;;;;;;;;;;;;;;;;;;;;;;;;;;;;;;;;;;;;;
"zabaleta";"1994";;"Windows 7";"Rachel's Experiment (SCIAT)";"1.0";"1";"1";"1";"1";"1";"1";"2014-07-17 16:09:13.861";"2014-07-17 16:24:05.794";"1";"1";"1";"1";"0";"51";"50";"module.training_block1.exec-8494.GoNoGo1";"1240";"2014-07-17 16:12:30.481";"ST_correctStop";"0";"1";"FINISHED";"NONE";"success";"0";"1";"2014-07-17 16:12:29.231";"1";;;;;;;;;;;;;;;;;;;;;;;;;;;;;;;;;;;;;;;;;;;;;;;;;;;;;;;;;;;;;;;;;;;;;;;;;;;;;;;;;;;;;;;;;;;;;;;;;
"zabaleta";"1994";;"Windows 7";"Rachel's Experiment (SCIAT)";"1.0";"1";"1";"1";"1";"1";"1";"2014-07-17 16:09:13.861";"2014-07-17 16:24:05.794";"1";"1";"1";"1";"0";"52";"51";"module.training_block2.exec-1958.GoNoGo2";;;;;;;;;;;;;"1247";"2014-07-17 16:12:41.261";"ST_failedStop";"35";"0";"FINISHED";"LEFT";"failure";"372";"1";"2014-07-17 16:12:40.011";"3";;;;;;;;;;;;;;;;;;;;;;;;;;;;;;;;;;;;;;;;;;;;;;;;;;;;;;;;;;;;;;;;;;;;;;;;;;;;;;;;;;;;;
"zabaleta";"1994";;"Windows 7";"Rachel's Experiment (SCIAT)";"1.0";"1";"1";"1";"1";"1";"1";"2014-07-17 16:09:13.861";"2014-07-17 16:24:05.794";"1";"1";"1";"1";"0";"53";"52";"module.training_block2.exec-1958.GoNoGo2";;;;;;;;;;;;;"1247";"2014-07-17 16:12:43.791";"NST_correctLoc";"31";"0";"FINISHED";"LEFT";"success";"466";"0";"2014-07-17 16:12:42.541";"3";;;;;;;;;;;;;;;;;;;;;;;;;;;;;;;;;;;;;;;;;;;;;;;;;;;;;;;;;;;;;;;;;;;;;;;;;;;;;;;;;;;;;
"zabaleta";"1994";;"Windows 7";"Rachel's Experiment (SCIAT)";"1.0";"1";"1";"1";"1";"1";"1";"2014-07-17 16:09:13.861";"2014-07-17 16:24:05.794";"1";"1";"1";"1";"0";"54";"53";"module.training_block2.exec-1958.GoNoGo2";;;;;;;;;;;;;"1247";"2014-07-17 16:12:46.321";"NST_correctLoc";"15";"0";"FINISHED";"LEFT";"success";"416";"0";"2014-07-17 16:12:45.071";"2";;;;;;;;;;;;;;;;;;;;;;;;;;;;;;;;;;;;;;;;;;;;;;;;;;;;;;;;;;;;;;;;;;;;;;;;;;;;;;;;;;;;;
"zabaleta";"1994";;"Windows 7";"Rachel's Experiment (SCIAT)";"1.0";"1";"1";"1";"1";"1";"1";"2014-07-17 16:09:13.861";"2014-07-17 16:24:05.794";"1";"1";"1";"1";"0";"55";"54";"module.training_block2.exec-1958.GoNoGo2";;;;;;;;;;;;;"1247";"2014-07-17 16:12:48.851";"NST_correctLoc";"17";"0";"FINISHED";"LEFT";"success";"350";"0";"2014-07-17 16:12:47.601";"2";;;;;;;;;;;;;;;;;;;;;;;;;;;;;;;;;;;;;;;;;;;;;;;;;;;;;;;;;;;;;;;;;;;;;;;;;;;;;;;;;;;;;
"zabaleta";"1994";;"Windows 7";"Rachel's Experiment (SCIAT)";"1.0";"1";"1";"1";"1";"1";"1";"2014-07-17 16:09:13.861";"2014-07-17 16:24:05.794";"1";"1";"1";"1";"0";"56";"55";"module.training_block2.exec-1958.GoNoGo2";;;;;;;;;;;;;"1247";"2014-07-17 16:12:51.381";"ST_correctStop";"30";"1";"FINISHED";"NONE";"success";"0";"1";"2014-07-17 16:12:50.131";"3";;;;;;;;;;;;;;;;;;;;;;;;;;;;;;;;;;;;;;;;;;;;;;;;;;;;;;;;;;;;;;;;;;;;;;;;;;;;;;;;;;;;;
"zabaleta";"1994";;"Windows 7";"Rachel's Experiment (SCIAT)";"1.0";"1";"1";"1";"1";"1";"1";"2014-07-17 16:09:13.861";"2014-07-17 16:24:05.794";"1";"1";"1";"1";"0";"57";"56";"module.training_block2.exec-1958.GoNoGo2";;;;;;;;;;;;;"1247";"2014-07-17 16:12:53.901";"ST_correctStop";"26";"0";"FINISHED";"NONE";"success";"0";"1";"2014-07-17 16:12:52.651";"3";;;;;;;;;;;;;;;;;;;;;;;;;;;;;;;;;;;;;;;;;;;;;;;;;;;;;;;;;;;;;;;;;;;;;;;;;;;;;;;;;;;;;
"zabaleta";"1994";;"Windows 7";"Rachel's Experiment (SCIAT)";"1.0";"1";"1";"1";"1";"1";"1";"2014-07-17 16:09:13.861";"2014-07-17 16:24:05.794";"1";"1";"1";"1";"0";"58";"57";"module.training_block2.exec-1958.GoNoGo2";;;;;;;;;;;;;"1247";"2014-07-17 16:12:56.421";"ST_correctStop";"1";"0";"FINISHED";"NONE";"success";"0";"1";"2014-07-17 16:12:55.171";"1";;;;;;;;;;;;;;;;;;;;;;;;;;;;;;;;;;;;;;;;;;;;;;;;;;;;;;;;;;;;;;;;;;;;;;;;;;;;;;;;;;;;;
"zabaleta";"1994";;"Windows 7";"Rachel's Experiment (SCIAT)";"1.0";"1";"1";"1";"1";"1";"1";"2014-07-17 16:09:13.861";"2014-07-17 16:24:05.794";"1";"1";"1";"1";"0";"59";"58";"module.training_block2.exec-1958.GoNoGo2";;;;;;;;;;;;;"1247";"2014-07-17 16:12:58.951";"ST_correctStop";"4";"0";"FINISHED";"NONE";"success";"0";"1";"2014-07-17 16:12:57.701";"1";;;;;;;;;;;;;;;;;;;;;;;;;;;;;;;;;;;;;;;;;;;;;;;;;;;;;;;;;;;;;;;;;;;;;;;;;;;;;;;;;;;;;
"zabaleta";"1994";;"Windows 7";"Rachel's Experiment (SCIAT)";"1.0";"1";"1";"1";"1";"1";"1";"2014-07-17 16:09:13.861";"2014-07-17 16:24:05.794";"1";"1";"1";"1";"0";"60";"59";"module.training_block2.exec-1958.GoNoGo2";;;;;;;;;;;;;"1247";"2014-07-17 16:13:01.471";"NST_correctLoc";"18";"0";"FINISHED";"LEFT";"success";"402";"0";"2014-07-17 16:13:00.221";"3";;;;;;;;;;;;;;;;;;;;;;;;;;;;;;;;;;;;;;;;;;;;;;;;;;;;;;;;;;;;;;;;;;;;;;;;;;;;;;;;;;;;;
"zabaleta";"1994";;"Windows 7";"Rachel's Experiment (SCIAT)";"1.0";"1";"1";"1";"1";"1";"1";"2014-07-17 16:09:13.861";"2014-07-17 16:24:05.794";"1";"1";"1";"1";"0";"61";"60";"module.training_block2.exec-1958.GoNoGo2";;;;;;;;;;;;;"1247";"2014-07-17 16:13:03.991";"ST_correctStop";"5";"1";"FINISHED";"NONE";"success";"0";"1";"2014-07-17 16:13:02.741";"1";;;;;;;;;;;;;;;;;;;;;;;;;;;;;;;;;;;;;;;;;;;;;;;;;;;;;;;;;;;;;;;;;;;;;;;;;;;;;;;;;;;;;
"zabaleta";"1994";;"Windows 7";"Rachel's Experiment (SCIAT)";"1.0";"1";"1";"1";"1";"1";"1";"2014-07-17 16:09:13.861";"2014-07-17 16:24:05.794";"1";"1";"1";"1";"0";"62";"61";"module.training_block2.exec-1958.GoNoGo2";;;;;;;;;;;;;"1247";"2014-07-17 16:13:06.511";"ST_correctStop";"3";"1";"FINISHED";"NONE";"success";"0";"1";"2014-07-17 16:13:05.261";"1";;;;;;;;;;;;;;;;;;;;;;;;;;;;;;;;;;;;;;;;;;;;;;;;;;;;;;;;;;;;;;;;;;;;;;;;;;;;;;;;;;;;;
"zabaleta";"1994";;"Windows 7";"Rachel's Experiment (SCIAT)";"1.0";"1";"1";"1";"1";"1";"1";"2014-07-17 16:09:13.861";"2014-07-17 16:24:05.794";"1";"1";"1";"1";"0";"63";"62";"module.training_block2.exec-1958.GoNoGo2";;;;;;;;;;;;;"1247";"2014-07-17 16:13:09.031";"NST_correctLoc";"14";"1";"FINISHED";"RIGHT";"success";"482";"0";"2014-07-17 16:13:07.781";"2";;;;;;;;;;;;;;;;;;;;;;;;;;;;;;;;;;;;;;;;;;;;;;;;;;;;;;;;;;;;;;;;;;;;;;;;;;;;;;;;;;;;;
"zabaleta";"1994";;"Windows 7";"Rachel's Experiment (SCIAT)";"1.0";"1";"1";"1";"1";"1";"1";"2014-07-17 16:09:13.861";"2014-07-17 16:24:05.794";"1";"1";"1";"1";"0";"64";"63";"module.training_block2.exec-1958.GoNoGo2";;;;;;;;;;;;;"1247";"2014-07-17 16:13:11.551";"ST_failedStop";"24";"0";"FINISHED";"LEFT";"failure";"474";"1";"2014-07-17 16:13:10.301";"3";;;;;;;;;;;;;;;;;;;;;;;;;;;;;;;;;;;;;;;;;;;;;;;;;;;;;;;;;;;;;;;;;;;;;;;;;;;;;;;;;;;;;
"zabaleta";"1994";;"Windows 7";"Rachel's Experiment (SCIAT)";"1.0";"1";"1";"1";"1";"1";"1";"2014-07-17 16:09:13.861";"2014-07-17 16:24:05.794";"1";"1";"1";"1";"0";"65";"64";"module.training_block2.exec-1958.GoNoGo2";;;;;;;;;;;;;"1247";"2014-07-17 16:13:14.071";"NST_correctLoc";"27";"1";"FINISHED";"RIGHT";"success";"506";"0";"2014-07-17 16:13:12.821";"3";;;;;;;;;;;;;;;;;;;;;;;;;;;;;;;;;;;;;;;;;;;;;;;;;;;;;;;;;;;;;;;;;;;;;;;;;;;;;;;;;;;;;
"zabaleta";"1994";;"Windows 7";"Rachel's Experiment (SCIAT)";"1.0";"1";"1";"1";"1";"1";"1";"2014-07-17 16:09:13.861";"2014-07-17 16:24:05.794";"1";"1";"1";"1";"0";"66";"65";"module.training_block2.exec-1958.GoNoGo2";;;;;;;;;;;;;"1247";"2014-07-17 16:13:16.601";"ST_correctStop";"0";"0";"FINISHED";"NONE";"success";"0";"1";"2014-07-17 16:13:15.351";"1";;;;;;;;;;;;;;;;;;;;;;;;;;;;;;;;;;;;;;;;;;;;;;;;;;;;;;;;;;;;;;;;;;;;;;;;;;;;;;;;;;;;;
"zabaleta";"1994";;"Windows 7";"Rachel's Experiment (SCIAT)";"1.0";"1";"1";"1";"1";"1";"1";"2014-07-17 16:09:13.861";"2014-07-17 16:24:05.794";"1";"1";"1";"1";"0";"67";"66";"module.training_block2.exec-1958.GoNoGo2";;;;;;;;;;;;;"1247";"2014-07-17 16:13:19.121";"NST_correctLoc";"29";"1";"FINISHED";"RIGHT";"success";"384";"0";"2014-07-17 16:13:17.871";"3";;;;;;;;;;;;;;;;;;;;;;;;;;;;;;;;;;;;;;;;;;;;;;;;;;;;;;;;;;;;;;;;;;;;;;;;;;;;;;;;;;;;;
"zabaleta";"1994";;"Windows 7";"Rachel's Experiment (SCIAT)";"1.0";"1";"1";"1";"1";"1";"1";"2014-07-17 16:09:13.861";"2014-07-17 16:24:05.794";"1";"1";"1";"1";"0";"68";"67";"module.training_block2.exec-1958.GoNoGo2";;;;;;;;;;;;;"1247";"2014-07-17 16:13:21.641";"ST_correctStop";"34";"1";"FINISHED";"NONE";"success";"0";"1";"2014-07-17 16:13:20.391";"3";;;;;;;;;;;;;;;;;;;;;;;;;;;;;;;;;;;;;;;;;;;;;;;;;;;;;;;;;;;;;;;;;;;;;;;;;;;;;;;;;;;;;
"zabaleta";"1994";;"Windows 7";"Rachel's Experiment (SCIAT)";"1.0";"1";"1";"1";"1";"1";"1";"2014-07-17 16:09:13.861";"2014-07-17 16:24:05.794";"1";"1";"1";"1";"0";"69";"68";"module.training_block2.exec-1958.GoNoGo2";;;;;;;;;;;;;"1247";"2014-07-17 16:13:24.161";"ST_correctStop";"6";"1";"FINISHED";"NONE";"success";"0";"1";"2014-07-17 16:13:22.911";"1";;;;;;;;;;;;;;;;;;;;;;;;;;;;;;;;;;;;;;;;;;;;;;;;;;;;;;;;;;;;;;;;;;;;;;;;;;;;;;;;;;;;;
"zabaleta";"1994";;"Windows 7";"Rachel's Experiment (SCIAT)";"1.0";"1";"1";"1";"1";"1";"1";"2014-07-17 16:09:13.861";"2014-07-17 16:24:05.794";"1";"1";"1";"1";"0";"70";"69";"module.training_block2.exec-1958.GoNoGo2";;;;;;;;;;;;;"1247";"2014-07-17 16:13:26.681";"ST_correctStop";"8";"0";"FINISHED";"NONE";"success";"0";"1";"2014-07-17 16:13:25.431";"1";;;;;;;;;;;;;;;;;;;;;;;;;;;;;;;;;;;;;;;;;;;;;;;;;;;;;;;;;;;;;;;;;;;;;;;;;;;;;;;;;;;;;
"zabaleta";"1994";;"Windows 7";"Rachel's Experiment (SCIAT)";"1.0";"1";"1";"1";"1";"1";"1";"2014-07-17 16:09:13.861";"2014-07-17 16:24:05.794";"1";"1";"1";"1";"0";"71";"70";"module.training_block2.exec-1958.GoNoGo2";;;;;;;;;;;;;"1247";"2014-07-17 16:13:29.201";"NST_correctLoc";"12";"0";"FINISHED";"LEFT";"success";"368";"0";"2014-07-17 16:13:27.951";"2";;;;;;;;;;;;;;;;;;;;;;;;;;;;;;;;;;;;;;;;;;;;;;;;;;;;;;;;;;;;;;;;;;;;;;;;;;;;;;;;;;;;;
"zabaleta";"1994";;"Windows 7";"Rachel's Experiment (SCIAT)";"1.0";"1";"1";"1";"1";"1";"1";"2014-07-17 16:09:13.861";"2014-07-17 16:24:05.794";"1";"1";"1";"1";"0";"72";"71";"module.training_block2.exec-1958.GoNoGo2";;;;;;;;;;;;;"1247";"2014-07-17 16:13:31.721";"ST_correctStop";"21";"0";"FINISHED";"NONE";"success";"0";"1";"2014-07-17 16:13:30.471";"3";;;;;;;;;;;;;;;;;;;;;;;;;;;;;;;;;;;;;;;;;;;;;;;;;;;;;;;;;;;;;;;;;;;;;;;;;;;;;;;;;;;;;
"zabaleta";"1994";;"Windows 7";"Rachel's Experiment (SCIAT)";"1.0";"1";"1";"1";"1";"1";"1";"2014-07-17 16:09:13.861";"2014-07-17 16:24:05.794";"1";"1";"1";"1";"0";"73";"72";"module.training_block2.exec-1958.GoNoGo2";;;;;;;;;;;;;"1247";"2014-07-17 16:13:34.241";"NST_correctLoc";"10";"0";"FINISHED";"LEFT";"success";"400";"0";"2014-07-17 16:13:32.991";"2";;;;;;;;;;;;;;;;;;;;;;;;;;;;;;;;;;;;;;;;;;;;;;;;;;;;;;;;;;;;;;;;;;;;;;;;;;;;;;;;;;;;;
"zabaleta";"1994";;"Windows 7";"Rachel's Experiment (SCIAT)";"1.0";"1";"1";"1";"1";"1";"1";"2014-07-17 16:09:13.861";"2014-07-17 16:24:05.794";"1";"1";"1";"1";"0";"74";"73";"module.training_block2.exec-1958.GoNoGo2";;;;;;;;;;;;;"1247";"2014-07-17 16:13:36.761";"ST_correctStop";"20";"0";"FINISHED";"NONE";"success";"0";"1";"2014-07-17 16:13:35.511";"3";;;;;;;;;;;;;;;;;;;;;;;;;;;;;;;;;;;;;;;;;;;;;;;;;;;;;;;;;;;;;;;;;;;;;;;;;;;;;;;;;;;;;
"zabaleta";"1994";;"Windows 7";"Rachel's Experiment (SCIAT)";"1.0";"1";"1";"1";"1";"1";"1";"2014-07-17 16:09:13.861";"2014-07-17 16:24:05.794";"1";"1";"1";"1";"0";"75";"74";"module.training_block2.exec-1958.GoNoGo2";;;;;;;;;;;;;"1247";"2014-07-17 16:13:39.281";"ST_correctStop";"28";"1";"FINISHED";"NONE";"success";"0";"1";"2014-07-17 16:13:38.031";"3";;;;;;;;;;;;;;;;;;;;;;;;;;;;;;;;;;;;;;;;;;;;;;;;;;;;;;;;;;;;;;;;;;;;;;;;;;;;;;;;;;;;;
"zabaleta";"1994";;"Windows 7";"Rachel's Experiment (SCIAT)";"1.0";"1";"1";"1";"1";"1";"1";"2014-07-17 16:09:13.861";"2014-07-17 16:24:05.794";"1";"1";"1";"1";"0";"76";"75";"module.training_block2.exec-1958.GoNoGo2";;;;;;;;;;;;;"1247";"2014-07-17 16:13:41.801";"NST_correctLoc";"25";"0";"FINISHED";"LEFT";"success";"376";"0";"2014-07-17 16:13:40.551";"3";;;;;;;;;;;;;;;;;;;;;;;;;;;;;;;;;;;;;;;;;;;;;;;;;;;;;;;;;;;;;;;;;;;;;;;;;;;;;;;;;;;;;
"zabaleta";"1994";;"Windows 7";"Rachel's Experiment (SCIAT)";"1.0";"1";"1";"1";"1";"1";"1";"2014-07-17 16:09:13.861";"2014-07-17 16:24:05.794";"1";"1";"1";"1";"0";"77";"76";"module.training_block2.exec-1958.GoNoGo2";;;;;;;;;;;;;"1247";"2014-07-17 16:13:44.321";"NST_correctLoc";"22";"0";"FINISHED";"LEFT";"success";"440";"0";"2014-07-17 16:13:43.071";"3";;;;;;;;;;;;;;;;;;;;;;;;;;;;;;;;;;;;;;;;;;;;;;;;;;;;;;;;;;;;;;;;;;;;;;;;;;;;;;;;;;;;;
"zabaleta";"1994";;"Windows 7";"Rachel's Experiment (SCIAT)";"1.0";"1";"1";"1";"1";"1";"1";"2014-07-17 16:09:13.861";"2014-07-17 16:24:05.794";"1";"1";"1";"1";"0";"78";"77";"module.training_block2.exec-1958.GoNoGo2";;;;;;;;;;;;;"1247";"2014-07-17 16:13:46.841";"NST_correctLoc";"32";"0";"FINISHED";"LEFT";"success";"368";"0";"2014-07-17 16:13:45.591";"3";;;;;;;;;;;;;;;;;;;;;;;;;;;;;;;;;;;;;;;;;;;;;;;;;;;;;;;;;;;;;;;;;;;;;;;;;;;;;;;;;;;;;
"zabaleta";"1994";;"Windows 7";"Rachel's Experiment (SCIAT)";"1.0";"1";"1";"1";"1";"1";"1";"2014-07-17 16:09:13.861";"2014-07-17 16:24:05.794";"1";"1";"1";"1";"0";"79";"78";"module.training_block2.exec-1958.GoNoGo2";;;;;;;;;;;;;"1247";"2014-07-17 16:13:49.361";"ST_failedStop";"7";"1";"FINISHED";"RIGHT";"failure";"376";"1";"2014-07-17 16:13:48.111";"1";;;;;;;;;;;;;;;;;;;;;;;;;;;;;;;;;;;;;;;;;;;;;;;;;;;;;;;;;;;;;;;;;;;;;;;;;;;;;;;;;;;;;
"zabaleta";"1994";;"Windows 7";"Rachel's Experiment (SCIAT)";"1.0";"1";"1";"1";"1";"1";"1";"2014-07-17 16:09:13.861";"2014-07-17 16:24:05.794";"1";"1";"1";"1";"0";"80";"79";"module.training_block2.exec-1958.GoNoGo2";;;;;;;;;;;;;"1247";"2014-07-17 16:13:51.881";"NST_correctLoc";"23";"1";"FINISHED";"RIGHT";"success";"416";"0";"2014-07-17 16:13:50.631";"3";;;;;;;;;;;;;;;;;;;;;;;;;;;;;;;;;;;;;;;;;;;;;;;;;;;;;;;;;;;;;;;;;;;;;;;;;;;;;;;;;;;;;
"zabaleta";"1994";;"Windows 7";"Rachel's Experiment (SCIAT)";"1.0";"1";"1";"1";"1";"1";"1";"2014-07-17 16:09:13.861";"2014-07-17 16:24:05.794";"1";"1";"1";"1";"0";"81";"80";"module.training_block2.exec-1958.GoNoGo2";;;;;;;;;;;;;"1247";"2014-07-17 16:13:54.401";"ST_correctStop";"33";"0";"FINISHED";"NONE";"success";"0";"1";"2014-07-17 16:13:53.151";"3";;;;;;;;;;;;;;;;;;;;;;;;;;;;;;;;;;;;;;;;;;;;;;;;;;;;;;;;;;;;;;;;;;;;;;;;;;;;;;;;;;;;;
"zabaleta";"1994";;"Windows 7";"Rachel's Experiment (SCIAT)";"1.0";"1";"1";"1";"1";"1";"1";"2014-07-17 16:09:13.861";"2014-07-17 16:24:05.794";"1";"1";"1";"1";"0";"82";"81";"module.training_block2.exec-1958.GoNoGo2";;;;;;;;;;;;;"1247";"2014-07-17 16:13:56.921";"NST_correctLoc";"11";"1";"FINISHED";"RIGHT";"success";"368";"0";"2014-07-17 16:13:55.671";"2";;;;;;;;;;;;;;;;;;;;;;;;;;;;;;;;;;;;;;;;;;;;;;;;;;;;;;;;;;;;;;;;;;;;;;;;;;;;;;;;;;;;;
"zabaleta";"1994";;"Windows 7";"Rachel's Experiment (SCIAT)";"1.0";"1";"1";"1";"1";"1";"1";"2014-07-17 16:09:13.861";"2014-07-17 16:24:05.794";"1";"1";"1";"1";"0";"83";"82";"module.training_block2.exec-1958.GoNoGo2";;;;;;;;;;;;;"1247";"2014-07-17 16:13:59.441";"ST_correctStop";"2";"0";"FINISHED";"NONE";"success";"0";"1";"2014-07-17 16:13:58.191";"1";;;;;;;;;;;;;;;;;;;;;;;;;;;;;;;;;;;;;;;;;;;;;;;;;;;;;;;;;;;;;;;;;;;;;;;;;;;;;;;;;;;;;
"zabaleta";"1994";;"Windows 7";"Rachel's Experiment (SCIAT)";"1.0";"1";"1";"1";"1";"1";"1";"2014-07-17 16:09:13.861";"2014-07-17 16:24:05.794";"1";"1";"1";"1";"0";"84";"83";"module.training_block2.exec-1958.GoNoGo2";;;;;;;;;;;;;"1247";"2014-07-17 16:14:01.961";"NST_correctLoc";"16";"1";"FINISHED";"RIGHT";"success";"400";"0";"2014-07-17 16:14:00.711";"2";;;;;;;;;;;;;;;;;;;;;;;;;;;;;;;;;;;;;;;;;;;;;;;;;;;;;;;;;;;;;;;;;;;;;;;;;;;;;;;;;;;;;
"zabaleta";"1994";;"Windows 7";"Rachel's Experiment (SCIAT)";"1.0";"1";"1";"1";"1";"1";"1";"2014-07-17 16:09:13.861";"2014-07-17 16:24:05.794";"1";"1";"1";"1";"0";"85";"84";"module.training_block2.exec-1958.GoNoGo2";;;;;;;;;;;;;"1247";"2014-07-17 16:14:04.481";"NST_correctLoc";"13";"0";"FINISHED";"LEFT";"success";"400";"0";"2014-07-17 16:14:03.231";"2";;;;;;;;;;;;;;;;;;;;;;;;;;;;;;;;;;;;;;;;;;;;;;;;;;;;;;;;;;;;;;;;;;;;;;;;;;;;;;;;;;;;;
"zabaleta";"1994";;"Windows 7";"Rachel's Experiment (SCIAT)";"1.0";"1";"1";"1";"1";"1";"1";"2014-07-17 16:09:13.861";"2014-07-17 16:24:05.794";"1";"1";"1";"1";"0";"86";"85";"module.training_block2.exec-1958.GoNoGo2";;;;;;;;;;;;;"1247";"2014-07-17 16:14:07.001";"NST_correctLoc";"19";"0";"FINISHED";"LEFT";"success";"560";"0";"2014-07-17 16:14:05.751";"3";;;;;;;;;;;;;;;;;;;;;;;;;;;;;;;;;;;;;;;;;;;;;;;;;;;;;;;;;;;;;;;;;;;;;;;;;;;;;;;;;;;;;
"zabaleta";"1994";;"Windows 7";"Rachel's Experiment (SCIAT)";"1.0";"1";"1";"1";"1";"1";"1";"2014-07-17 16:09:13.861";"2014-07-17 16:24:05.794";"1";"1";"1";"1";"0";"87";"86";"module.training_block2.exec-1958.GoNoGo2";;;;;;;;;;;;;"1247";"2014-07-17 16:14:09.521";"NST_correctLoc";"9";"1";"FINISHED";"RIGHT";"success";"424";"0";"2014-07-17 16:14:08.271";"2";;;;;;;;;;;;;;;;;;;;;;;;;;;;;;;;;;;;;;;;;;;;;;;;;;;;;;;;;;;;;;;;;;;;;;;;;;;;;;;;;;;;;
"zabaleta";"1994";;"Windows 7";"Rachel's Experiment (SCIAT)";"1.0";"1";"1";"1";"1";"1";"1";"2014-07-17 16:09:13.861";"2014-07-17 16:24:05.794";"1";"1";"1";"1";"0";"88";"87";"module.training_block3.exec-8734.GoNoGo3";;;;;;;;;;;;;;;;;;;;;;;;;"1247";"2014-07-17 16:14:20.851";"NST_correctLoc";"27";"1";"FINISHED";"RIGHT";"success";"390";"0";"2014-07-17 16:14:19.601";"3";;;;;;;;;;;;;;;;;;;;;;;;;;;;;;;;;;;;;;;;;;;;;;;;;;;;;;;;;;;;;;;;;;;;;;;;;
"zabaleta";"1994";;"Windows 7";"Rachel's Experiment (SCIAT)";"1.0";"1";"1";"1";"1";"1";"1";"2014-07-17 16:09:13.861";"2014-07-17 16:24:05.794";"1";"1";"1";"1";"0";"89";"88";"module.training_block3.exec-8734.GoNoGo3";;;;;;;;;;;;;;;;;;;;;;;;;"1247";"2014-07-17 16:14:23.371";"NST_correctLoc";"34";"0";"FINISHED";"LEFT";"success";"310";"0";"2014-07-17 16:14:22.121";"3";;;;;;;;;;;;;;;;;;;;;;;;;;;;;;;;;;;;;;;;;;;;;;;;;;;;;;;;;;;;;;;;;;;;;;;;;
"zabaleta";"1994";;"Windows 7";"Rachel's Experiment (SCIAT)";"1.0";"1";"1";"1";"1";"1";"1";"2014-07-17 16:09:13.861";"2014-07-17 16:24:05.794";"1";"1";"1";"1";"0";"90";"89";"module.training_block3.exec-8734.GoNoGo3";;;;;;;;;;;;;;;;;;;;;;;;;"1247";"2014-07-17 16:14:25.891";"NST_correctLoc";"19";"1";"FINISHED";"RIGHT";"success";"342";"0";"2014-07-17 16:14:24.641";"3";;;;;;;;;;;;;;;;;;;;;;;;;;;;;;;;;;;;;;;;;;;;;;;;;;;;;;;;;;;;;;;;;;;;;;;;;
"zabaleta";"1994";;"Windows 7";"Rachel's Experiment (SCIAT)";"1.0";"1";"1";"1";"1";"1";"1";"2014-07-17 16:09:13.861";"2014-07-17 16:24:05.794";"1";"1";"1";"1";"0";"91";"90";"module.training_block3.exec-8734.GoNoGo3";;;;;;;;;;;;;;;;;;;;;;;;;"1247";"2014-07-17 16:14:28.411";"ST_failedStop";"5";"0";"FINISHED";"LEFT";"failure";"310";"1";"2014-07-17 16:14:27.161";"1";;;;;;;;;;;;;;;;;;;;;;;;;;;;;;;;;;;;;;;;;;;;;;;;;;;;;;;;;;;;;;;;;;;;;;;;;
"zabaleta";"1994";;"Windows 7";"Rachel's Experiment (SCIAT)";"1.0";"1";"1";"1";"1";"1";"1";"2014-07-17 16:09:13.861";"2014-07-17 16:24:05.794";"1";"1";"1";"1";"0";"92";"91";"module.training_block3.exec-8734.GoNoGo3";;;;;;;;;;;;;;;;;;;;;;;;;"1247";"2014-07-17 16:14:30.931";"NST_correctLoc";"24";"0";"FINISHED";"LEFT";"success";"374";"0";"2014-07-17 16:14:29.681";"3";;;;;;;;;;;;;;;;;;;;;;;;;;;;;;;;;;;;;;;;;;;;;;;;;;;;;;;;;;;;;;;;;;;;;;;;;
"zabaleta";"1994";;"Windows 7";"Rachel's Experiment (SCIAT)";"1.0";"1";"1";"1";"1";"1";"1";"2014-07-17 16:09:13.861";"2014-07-17 16:24:05.794";"1";"1";"1";"1";"0";"93";"92";"module.training_block3.exec-8734.GoNoGo3";;;;;;;;;;;;;;;;;;;;;;;;;"1247";"2014-07-17 16:14:33.451";"ST_failedStop";"31";"0";"FINISHED";"LEFT";"failure";"358";"1";"2014-07-17 16:14:32.201";"3";;;;;;;;;;;;;;;;;;;;;;;;;;;;;;;;;;;;;;;;;;;;;;;;;;;;;;;;;;;;;;;;;;;;;;;;;
"zabaleta";"1994";;"Windows 7";"Rachel's Experiment (SCIAT)";"1.0";"1";"1";"1";"1";"1";"1";"2014-07-17 16:09:13.861";"2014-07-17 16:24:05.794";"1";"1";"1";"1";"0";"94";"93";"module.training_block3.exec-8734.GoNoGo3";;;;;;;;;;;;;;;;;;;;;;;;;"1247";"2014-07-17 16:14:35.971";"ST_correctStop";"30";"1";"FINISHED";"NONE";"success";"0";"1";"2014-07-17 16:14:34.721";"3";;;;;;;;;;;;;;;;;;;;;;;;;;;;;;;;;;;;;;;;;;;;;;;;;;;;;;;;;;;;;;;;;;;;;;;;;
"zabaleta";"1994";;"Windows 7";"Rachel's Experiment (SCIAT)";"1.0";"1";"1";"1";"1";"1";"1";"2014-07-17 16:09:13.861";"2014-07-17 16:24:05.794";"1";"1";"1";"1";"0";"95";"94";"module.training_block3.exec-8734.GoNoGo3";;;;;;;;;;;;;;;;;;;;;;;;;"1247";"2014-07-17 16:14:38.491";"NST_correctLoc";"13";"1";"FINISHED";"RIGHT";"success";"438";"0";"2014-07-17 16:14:37.241";"2";;;;;;;;;;;;;;;;;;;;;;;;;;;;;;;;;;;;;;;;;;;;;;;;;;;;;;;;;;;;;;;;;;;;;;;;;
"zabaleta";"1994";;"Windows 7";"Rachel's Experiment (SCIAT)";"1.0";"1";"1";"1";"1";"1";"1";"2014-07-17 16:09:13.861";"2014-07-17 16:24:05.794";"1";"1";"1";"1";"0";"96";"95";"module.training_block3.exec-8734.GoNoGo3";;;;;;;;;;;;;;;;;;;;;;;;;"1241";"2014-07-17 16:14:41.011";"NST_correctLoc";"15";"0";"FINISHED";"LEFT";"success";"432";"0";"2014-07-17 16:14:39.761";"2";;;;;;;;;;;;;;;;;;;;;;;;;;;;;;;;;;;;;;;;;;;;;;;;;;;;;;;;;;;;;;;;;;;;;;;;;
"zabaleta";"1994";;"Windows 7";"Rachel's Experiment (SCIAT)";"1.0";"1";"1";"1";"1";"1";"1";"2014-07-17 16:09:13.861";"2014-07-17 16:24:05.794";"1";"1";"1";"1";"0";"97";"96";"module.training_block3.exec-8734.GoNoGo3";;;;;;;;;;;;;;;;;;;;;;;;;"1247";"2014-07-17 16:14:43.531";"NST_correctLoc";"22";"0";"FINISHED";"LEFT";"success";"382";"0";"2014-07-17 16:14:42.281";"3";;;;;;;;;;;;;;;;;;;;;;;;;;;;;;;;;;;;;;;;;;;;;;;;;;;;;;;;;;;;;;;;;;;;;;;;;
"zabaleta";"1994";;"Windows 7";"Rachel's Experiment (SCIAT)";"1.0";"1";"1";"1";"1";"1";"1";"2014-07-17 16:09:13.861";"2014-07-17 16:24:05.794";"1";"1";"1";"1";"0";"98";"97";"module.training_block3.exec-8734.GoNoGo3";;;;;;;;;;;;;;;;;;;;;;;;;"1247";"2014-07-17 16:14:46.051";"ST_correctStop";"23";"1";"FINISHED";"NONE";"success";"0";"1";"2014-07-17 16:14:44.801";"3";;;;;;;;;;;;;;;;;;;;;;;;;;;;;;;;;;;;;;;;;;;;;;;;;;;;;;;;;;;;;;;;;;;;;;;;;
"zabaleta";"1994";;"Windows 7";"Rachel's Experiment (SCIAT)";"1.0";"1";"1";"1";"1";"1";"1";"2014-07-17 16:09:13.861";"2014-07-17 16:24:05.794";"1";"1";"1";"1";"0";"99";"98";"module.training_block3.exec-8734.GoNoGo3";;;;;;;;;;;;;;;;;;;;;;;;;"1247";"2014-07-17 16:14:48.571";"NST_correctLoc";"11";"0";"FINISHED";"LEFT";"success";"390";"0";"2014-07-17 16:14:47.321";"2";;;;;;;;;;;;;;;;;;;;;;;;;;;;;;;;;;;;;;;;;;;;;;;;;;;;;;;;;;;;;;;;;;;;;;;;;
"zabaleta";"1994";;"Windows 7";"Rachel's Experiment (SCIAT)";"1.0";"1";"1";"1";"1";"1";"1";"2014-07-17 16:09:13.861";"2014-07-17 16:24:05.794";"1";"1";"1";"1";"0";"100";"99";"module.training_block3.exec-8734.GoNoGo3";;;;;;;;;;;;;;;;;;;;;;;;;"1247";"2014-07-17 16:14:51.091";"NST_correctLoc";"16";"1";"FINISHED";"RIGHT";"success";"438";"0";"2014-07-17 16:14:49.841";"2";;;;;;;;;;;;;;;;;;;;;;;;;;;;;;;;;;;;;;;;;;;;;;;;;;;;;;;;;;;;;;;;;;;;;;;;;
"zabaleta";"1994";;"Windows 7";"Rachel's Experiment (SCIAT)";"1.0";"1";"1";"1";"1";"1";"1";"2014-07-17 16:09:13.861";"2014-07-17 16:24:05.794";"1";"1";"1";"1";"0";"101";"100";"module.training_block3.exec-8734.GoNoGo3";;;;;;;;;;;;;;;;;;;;;;;;;"1247";"2014-07-17 16:14:53.611";"ST_correctStop";"3";"0";"FINISHED";"NONE";"success";"0";"1";"2014-07-17 16:14:52.361";"1";;;;;;;;;;;;;;;;;;;;;;;;;;;;;;;;;;;;;;;;;;;;;;;;;;;;;;;;;;;;;;;;;;;;;;;;;
"zabaleta";"1994";;"Windows 7";"Rachel's Experiment (SCIAT)";"1.0";"1";"1";"1";"1";"1";"1";"2014-07-17 16:09:13.861";"2014-07-17 16:24:05.794";"1";"1";"1";"1";"0";"102";"101";"module.training_block3.exec-8734.GoNoGo3";;;;;;;;;;;;;;;;;;;;;;;;;"1247";"2014-07-17 16:14:56.131";"ST_failedStop";"33";"0";"FINISHED";"LEFT";"failure";"398";"1";"2014-07-17 16:14:54.881";"3";;;;;;;;;;;;;;;;;;;;;;;;;;;;;;;;;;;;;;;;;;;;;;;;;;;;;;;;;;;;;;;;;;;;;;;;;
"zabaleta";"1994";;"Windows 7";"Rachel's Experiment (SCIAT)";"1.0";"1";"1";"1";"1";"1";"1";"2014-07-17 16:09:13.861";"2014-07-17 16:24:05.794";"1";"1";"1";"1";"0";"103";"102";"module.training_block3.exec-8734.GoNoGo3";;;;;;;;;;;;;;;;;;;;;;;;;"1247";"2014-07-17 16:14:58.651";"ST_correctStop";"25";"1";"FINISHED";"NONE";"success";"0";"1";"2014-07-17 16:14:57.401";"3";;;;;;;;;;;;;;;;;;;;;;;;;;;;;;;;;;;;;;;;;;;;;;;;;;;;;;;;;;;;;;;;;;;;;;;;;
"zabaleta";"1994";;"Windows 7";"Rachel's Experiment (SCIAT)";"1.0";"1";"1";"1";"1";"1";"1";"2014-07-17 16:09:13.861";"2014-07-17 16:24:05.794";"1";"1";"1";"1";"0";"104";"103";"module.training_block3.exec-8734.GoNoGo3";;;;;;;;;;;;;;;;;;;;;;;;;"1247";"2014-07-17 16:15:01.171";"NST_correctLoc";"26";"1";"FINISHED";"RIGHT";"success";"422";"0";"2014-07-17 16:14:59.921";"3";;;;;;;;;;;;;;;;;;;;;;;;;;;;;;;;;;;;;;;;;;;;;;;;;;;;;;;;;;;;;;;;;;;;;;;;;
"zabaleta";"1994";;"Windows 7";"Rachel's Experiment (SCIAT)";"1.0";"1";"1";"1";"1";"1";"1";"2014-07-17 16:09:13.861";"2014-07-17 16:24:05.794";"1";"1";"1";"1";"0";"105";"104";"module.training_block3.exec-8734.GoNoGo3";;;;;;;;;;;;;;;;;;;;;;;;;"1247";"2014-07-17 16:15:03.701";"ST_correctStop";"20";"1";"FINISHED";"NONE";"success";"0";"1";"2014-07-17 16:15:02.451";"3";;;;;;;;;;;;;;;;;;;;;;;;;;;;;;;;;;;;;;;;;;;;;;;;;;;;;;;;;;;;;;;;;;;;;;;;;
"zabaleta";"1994";;"Windows 7";"Rachel's Experiment (SCIAT)";"1.0";"1";"1";"1";"1";"1";"1";"2014-07-17 16:09:13.861";"2014-07-17 16:24:05.794";"1";"1";"1";"1";"0";"106";"105";"module.training_block3.exec-8734.GoNoGo3";;;;;;;;;;;;;;;;;;;;;;;;;"1247";"2014-07-17 16:15:06.221";"ST_correctStop";"2";"1";"FINISHED";"NONE";"success";"0";"1";"2014-07-17 16:15:04.971";"1";;;;;;;;;;;;;;;;;;;;;;;;;;;;;;;;;;;;;;;;;;;;;;;;;;;;;;;;;;;;;;;;;;;;;;;;;
"zabaleta";"1994";;"Windows 7";"Rachel's Experiment (SCIAT)";"1.0";"1";"1";"1";"1";"1";"1";"2014-07-17 16:09:13.861";"2014-07-17 16:24:05.794";"1";"1";"1";"1";"0";"107";"106";"module.training_block3.exec-8734.GoNoGo3";;;;;;;;;;;;;;;;;;;;;;;;;"1247";"2014-07-17 16:15:08.751";"NST_correctLoc";"10";"1";"FINISHED";"RIGHT";"success";"394";"0";"2014-07-17 16:15:07.501";"2";;;;;;;;;;;;;;;;;;;;;;;;;;;;;;;;;;;;;;;;;;;;;;;;;;;;;;;;;;;;;;;;;;;;;;;;;
"zabaleta";"1994";;"Windows 7";"Rachel's Experiment (SCIAT)";"1.0";"1";"1";"1";"1";"1";"1";"2014-07-17 16:09:13.861";"2014-07-17 16:24:05.794";"1";"1";"1";"1";"0";"108";"107";"module.training_block3.exec-8734.GoNoGo3";;;;;;;;;;;;;;;;;;;;;;;;;"1247";"2014-07-17 16:15:11.271";"ST_correctStop";"7";"1";"FINISHED";"NONE";"success";"0";"1";"2014-07-17 16:15:10.021";"1";;;;;;;;;;;;;;;;;;;;;;;;;;;;;;;;;;;;;;;;;;;;;;;;;;;;;;;;;;;;;;;;;;;;;;;;;
"zabaleta";"1994";;"Windows 7";"Rachel's Experiment (SCIAT)";"1.0";"1";"1";"1";"1";"1";"1";"2014-07-17 16:09:13.861";"2014-07-17 16:24:05.794";"1";"1";"1";"1";"0";"109";"108";"module.training_block3.exec-8734.GoNoGo3";;;;;;;;;;;;;;;;;;;;;;;;;"1247";"2014-07-17 16:15:13.791";"NST_correctLoc";"12";"0";"FINISHED";"LEFT";"success";"426";"0";"2014-07-17 16:15:12.541";"2";;;;;;;;;;;;;;;;;;;;;;;;;;;;;;;;;;;;;;;;;;;;;;;;;;;;;;;;;;;;;;;;;;;;;;;;;
"zabaleta";"1994";;"Windows 7";"Rachel's Experiment (SCIAT)";"1.0";"1";"1";"1";"1";"1";"1";"2014-07-17 16:09:13.861";"2014-07-17 16:24:05.794";"1";"1";"1";"1";"0";"110";"109";"module.training_block3.exec-8734.GoNoGo3";;;;;;;;;;;;;;;;;;;;;;;;;"1247";"2014-07-17 16:15:16.311";"ST_correctStop";"21";"0";"FINISHED";"NONE";"success";"0";"1";"2014-07-17 16:15:15.061";"3";;;;;;;;;;;;;;;;;;;;;;;;;;;;;;;;;;;;;;;;;;;;;;;;;;;;;;;;;;;;;;;;;;;;;;;;;
"zabaleta";"1994";;"Windows 7";"Rachel's Experiment (SCIAT)";"1.0";"1";"1";"1";"1";"1";"1";"2014-07-17 16:09:13.861";"2014-07-17 16:24:05.794";"1";"1";"1";"1";"0";"111";"110";"module.training_block3.exec-8734.GoNoGo3";;;;;;;;;;;;;;;;;;;;;;;;;"1247";"2014-07-17 16:15:18.831";"NST_correctLoc";"35";"0";"FINISHED";"LEFT";"success";"362";"0";"2014-07-17 16:15:17.581";"3";;;;;;;;;;;;;;;;;;;;;;;;;;;;;;;;;;;;;;;;;;;;;;;;;;;;;;;;;;;;;;;;;;;;;;;;;
"zabaleta";"1994";;"Windows 7";"Rachel's Experiment (SCIAT)";"1.0";"1";"1";"1";"1";"1";"1";"2014-07-17 16:09:13.861";"2014-07-17 16:24:05.794";"1";"1";"1";"1";"0";"112";"111";"module.training_block3.exec-8734.GoNoGo3";;;;;;;;;;;;;;;;;;;;;;;;;"1247";"2014-07-17 16:15:21.351";"ST_correctStop";"6";"0";"FINISHED";"NONE";"success";"0";"1";"2014-07-17 16:15:20.101";"1";;;;;;;;;;;;;;;;;;;;;;;;;;;;;;;;;;;;;;;;;;;;;;;;;;;;;;;;;;;;;;;;;;;;;;;;;
"zabaleta";"1994";;"Windows 7";"Rachel's Experiment (SCIAT)";"1.0";"1";"1";"1";"1";"1";"1";"2014-07-17 16:09:13.861";"2014-07-17 16:24:05.794";"1";"1";"1";"1";"0";"113";"112";"module.training_block3.exec-8734.GoNoGo3";;;;;;;;;;;;;;;;;;;;;;;;;"1247";"2014-07-17 16:15:23.871";"NST_correctLoc";"29";"1";"FINISHED";"RIGHT";"success";"394";"0";"2014-07-17 16:15:22.621";"3";;;;;;;;;;;;;;;;;;;;;;;;;;;;;;;;;;;;;;;;;;;;;;;;;;;;;;;;;;;;;;;;;;;;;;;;;
"zabaleta";"1994";;"Windows 7";"Rachel's Experiment (SCIAT)";"1.0";"1";"1";"1";"1";"1";"1";"2014-07-17 16:09:13.861";"2014-07-17 16:24:05.794";"1";"1";"1";"1";"0";"114";"113";"module.training_block3.exec-8734.GoNoGo3";;;;;;;;;;;;;;;;;;;;;;;;;"1247";"2014-07-17 16:15:26.391";"NST_correctLoc";"18";"0";"FINISHED";"LEFT";"success";"402";"0";"2014-07-17 16:15:25.141";"3";;;;;;;;;;;;;;;;;;;;;;;;;;;;;;;;;;;;;;;;;;;;;;;;;;;;;;;;;;;;;;;;;;;;;;;;;
"zabaleta";"1994";;"Windows 7";"Rachel's Experiment (SCIAT)";"1.0";"1";"1";"1";"1";"1";"1";"2014-07-17 16:09:13.861";"2014-07-17 16:24:05.794";"1";"1";"1";"1";"0";"115";"114";"module.training_block3.exec-8734.GoNoGo3";;;;;;;;;;;;;;;;;;;;;;;;;"1247";"2014-07-17 16:15:28.911";"NST_correctLoc";"17";"0";"FINISHED";"LEFT";"success";"458";"0";"2014-07-17 16:15:27.661";"2";;;;;;;;;;;;;;;;;;;;;;;;;;;;;;;;;;;;;;;;;;;;;;;;;;;;;;;;;;;;;;;;;;;;;;;;;
"zabaleta";"1994";;"Windows 7";"Rachel's Experiment (SCIAT)";"1.0";"1";"1";"1";"1";"1";"1";"2014-07-17 16:09:13.861";"2014-07-17 16:24:05.794";"1";"1";"1";"1";"0";"116";"115";"module.training_block3.exec-8734.GoNoGo3";;;;;;;;;;;;;;;;;;;;;;;;;"1247";"2014-07-17 16:15:31.431";"ST_correctStop";"4";"0";"FINISHED";"NONE";"success";"0";"1";"2014-07-17 16:15:30.181";"1";;;;;;;;;;;;;;;;;;;;;;;;;;;;;;;;;;;;;;;;;;;;;;;;;;;;;;;;;;;;;;;;;;;;;;;;;
"zabaleta";"1994";;"Windows 7";"Rachel's Experiment (SCIAT)";"1.0";"1";"1";"1";"1";"1";"1";"2014-07-17 16:09:13.861";"2014-07-17 16:24:05.794";"1";"1";"1";"1";"0";"117";"116";"module.training_block3.exec-8734.GoNoGo3";;;;;;;;;;;;;;;;;;;;;;;;;"1247";"2014-07-17 16:15:33.951";"ST_correctStop";"28";"1";"FINISHED";"NONE";"success";"0";"1";"2014-07-17 16:15:32.701";"3";;;;;;;;;;;;;;;;;;;;;;;;;;;;;;;;;;;;;;;;;;;;;;;;;;;;;;;;;;;;;;;;;;;;;;;;;
"zabaleta";"1994";;"Windows 7";"Rachel's Experiment (SCIAT)";"1.0";"1";"1";"1";"1";"1";"1";"2014-07-17 16:09:13.861";"2014-07-17 16:24:05.794";"1";"1";"1";"1";"0";"118";"117";"module.training_block3.exec-8734.GoNoGo3";;;;;;;;;;;;;;;;;;;;;;;;;"1247";"2014-07-17 16:15:36.471";"NST_correctLoc";"9";"1";"FINISHED";"RIGHT";"success";"426";"0";"2014-07-17 16:15:35.221";"2";;;;;;;;;;;;;;;;;;;;;;;;;;;;;;;;;;;;;;;;;;;;;;;;;;;;;;;;;;;;;;;;;;;;;;;;;
"zabaleta";"1994";;"Windows 7";"Rachel's Experiment (SCIAT)";"1.0";"1";"1";"1";"1";"1";"1";"2014-07-17 16:09:13.861";"2014-07-17 16:24:05.794";"1";"1";"1";"1";"0";"119";"118";"module.training_block3.exec-8734.GoNoGo3";;;;;;;;;;;;;;;;;;;;;;;;;"1247";"2014-07-17 16:15:38.991";"ST_correctStop";"32";"1";"FINISHED";"NONE";"success";"0";"1";"2014-07-17 16:15:37.741";"3";;;;;;;;;;;;;;;;;;;;;;;;;;;;;;;;;;;;;;;;;;;;;;;;;;;;;;;;;;;;;;;;;;;;;;;;;
"zabaleta";"1994";;"Windows 7";"Rachel's Experiment (SCIAT)";"1.0";"1";"1";"1";"1";"1";"1";"2014-07-17 16:09:13.861";"2014-07-17 16:24:05.794";"1";"1";"1";"1";"0";"120";"119";"module.training_block3.exec-8734.GoNoGo3";;;;;;;;;;;;;;;;;;;;;;;;;"1247";"2014-07-17 16:15:41.511";"ST_correctStop";"8";"0";"FINISHED";"NONE";"success";"0";"1";"2014-07-17 16:15:40.261";"1";;;;;;;;;;;;;;;;;;;;;;;;;;;;;;;;;;;;;;;;;;;;;;;;;;;;;;;;;;;;;;;;;;;;;;;;;
"zabaleta";"1994";;"Windows 7";"Rachel's Experiment (SCIAT)";"1.0";"1";"1";"1";"1";"1";"1";"2014-07-17 16:09:13.861";"2014-07-17 16:24:05.794";"1";"1";"1";"1";"0";"121";"120";"module.training_block3.exec-8734.GoNoGo3";;;;;;;;;;;;;;;;;;;;;;;;;"1247";"2014-07-17 16:15:44.031";"NST_correctLoc";"14";"0";"FINISHED";"LEFT";"success";"418";"0";"2014-07-17 16:15:42.781";"2";;;;;;;;;;;;;;;;;;;;;;;;;;;;;;;;;;;;;;;;;;;;;;;;;;;;;;;;;;;;;;;;;;;;;;;;;
"zabaleta";"1994";;"Windows 7";"Rachel's Experiment (SCIAT)";"1.0";"1";"1";"1";"1";"1";"1";"2014-07-17 16:09:13.861";"2014-07-17 16:24:05.794";"1";"1";"1";"1";"0";"122";"121";"module.training_block3.exec-8734.GoNoGo3";;;;;;;;;;;;;;;;;;;;;;;;;"1247";"2014-07-17 16:15:46.551";"ST_correctStop";"1";"1";"FINISHED";"NONE";"success";"0";"1";"2014-07-17 16:15:45.301";"1";;;;;;;;;;;;;;;;;;;;;;;;;;;;;;;;;;;;;;;;;;;;;;;;;;;;;;;;;;;;;;;;;;;;;;;;;
"zabaleta";"1994";;"Windows 7";"Rachel's Experiment (SCIAT)";"1.0";"1";"1";"1";"1";"1";"1";"2014-07-17 16:09:13.861";"2014-07-17 16:24:05.794";"1";"1";"1";"1";"0";"123";"122";"module.training_block3.exec-8734.GoNoGo3";;;;;;;;;;;;;;;;;;;;;;;;;"1247";"2014-07-17 16:15:49.071";"ST_correctStop";"0";"1";"FINISHED";"NONE";"success";"0";"1";"2014-07-17 16:15:47.821";"1";;;;;;;;;;;;;;;;;;;;;;;;;;;;;;;;;;;;;;;;;;;;;;;;;;;;;;;;;;;;;;;;;;;;;;;;;
"zabaleta";"1994";;"Windows 7";"Rachel's Experiment (SCIAT)";"1.0";"1";"1";"1";"1";"1";"1";"2014-07-17 16:09:13.861";"2014-07-17 16:24:05.794";"1";"1";"1";"1";"0";"124";"123";"module.training_block4.exec-9666.GoNoGo4";;;;;;;;;;;;;;;;;;;;;;;;;;;;;;;;;;;;;"1247";"2014-07-17 16:16:00.181";"NST_correctLoc";"19";"0";"FINISHED";"LEFT";"success";"500";"0";"2014-07-17 16:15:58.931";"3";;;;;;;;;;;;;;;;;;;;;;;;;;;;;;;;;;;;;;;;;;;;;;;;;;;;;;;;;;;;;
"zabaleta";"1994";;"Windows 7";"Rachel's Experiment (SCIAT)";"1.0";"1";"1";"1";"1";"1";"1";"2014-07-17 16:09:13.861";"2014-07-17 16:24:05.794";"1";"1";"1";"1";"0";"125";"124";"module.training_block4.exec-9666.GoNoGo4";;;;;;;;;;;;;;;;;;;;;;;;;;;;;;;;;;;;;"1247";"2014-07-17 16:16:02.701";"NST_correctLoc";"17";"1";"FINISHED";"RIGHT";"success";"604";"0";"2014-07-17 16:16:01.451";"2";;;;;;;;;;;;;;;;;;;;;;;;;;;;;;;;;;;;;;;;;;;;;;;;;;;;;;;;;;;;;
"zabaleta";"1994";;"Windows 7";"Rachel's Experiment (SCIAT)";"1.0";"1";"1";"1";"1";"1";"1";"2014-07-17 16:09:13.861";"2014-07-17 16:24:05.794";"1";"1";"1";"1";"0";"126";"125";"module.training_block4.exec-9666.GoNoGo4";;;;;;;;;;;;;;;;;;;;;;;;;;;;;;;;;;;;;"1247";"2014-07-17 16:16:05.221";"ST_correctStop";"5";"1";"FINISHED";"NONE";"success";"0";"1";"2014-07-17 16:16:03.971";"1";;;;;;;;;;;;;;;;;;;;;;;;;;;;;;;;;;;;;;;;;;;;;;;;;;;;;;;;;;;;;
"zabaleta";"1994";;"Windows 7";"Rachel's Experiment (SCIAT)";"1.0";"1";"1";"1";"1";"1";"1";"2014-07-17 16:09:13.861";"2014-07-17 16:24:05.794";"1";"1";"1";"1";"0";"127";"126";"module.training_block4.exec-9666.GoNoGo4";;;;;;;;;;;;;;;;;;;;;;;;;;;;;;;;;;;;;"1247";"2014-07-17 16:16:07.741";"ST_correctStop";"35";"0";"FINISHED";"NONE";"success";"0";"1";"2014-07-17 16:16:06.491";"3";;;;;;;;;;;;;;;;;;;;;;;;;;;;;;;;;;;;;;;;;;;;;;;;;;;;;;;;;;;;;
"zabaleta";"1994";;"Windows 7";"Rachel's Experiment (SCIAT)";"1.0";"1";"1";"1";"1";"1";"1";"2014-07-17 16:09:13.861";"2014-07-17 16:24:05.794";"1";"1";"1";"1";"0";"128";"127";"module.training_block4.exec-9666.GoNoGo4";;;;;;;;;;;;;;;;;;;;;;;;;;;;;;;;;;;;;"1247";"2014-07-17 16:16:10.261";"NST_correctLoc";"16";"0";"FINISHED";"LEFT";"success";"380";"0";"2014-07-17 16:16:09.011";"2";;;;;;;;;;;;;;;;;;;;;;;;;;;;;;;;;;;;;;;;;;;;;;;;;;;;;;;;;;;;;
"zabaleta";"1994";;"Windows 7";"Rachel's Experiment (SCIAT)";"1.0";"1";"1";"1";"1";"1";"1";"2014-07-17 16:09:13.861";"2014-07-17 16:24:05.794";"1";"1";"1";"1";"0";"129";"128";"module.training_block4.exec-9666.GoNoGo4";;;;;;;;;;;;;;;;;;;;;;;;;;;;;;;;;;;;;"1247";"2014-07-17 16:16:12.781";"NST_correctLoc";"13";"1";"FINISHED";"RIGHT";"success";"380";"0";"2014-07-17 16:16:11.531";"2";;;;;;;;;;;;;;;;;;;;;;;;;;;;;;;;;;;;;;;;;;;;;;;;;;;;;;;;;;;;;
"zabaleta";"1994";;"Windows 7";"Rachel's Experiment (SCIAT)";"1.0";"1";"1";"1";"1";"1";"1";"2014-07-17 16:09:13.861";"2014-07-17 16:24:05.794";"1";"1";"1";"1";"0";"130";"129";"module.training_block4.exec-9666.GoNoGo4";;;;;;;;;;;;;;;;;;;;;;;;;;;;;;;;;;;;;"1247";"2014-07-17 16:16:15.301";"ST_correctStop";"18";"1";"FINISHED";"NONE";"success";"0";"1";"2014-07-17 16:16:14.051";"3";;;;;;;;;;;;;;;;;;;;;;;;;;;;;;;;;;;;;;;;;;;;;;;;;;;;;;;;;;;;;
"zabaleta";"1994";;"Windows 7";"Rachel's Experiment (SCIAT)";"1.0";"1";"1";"1";"1";"1";"1";"2014-07-17 16:09:13.861";"2014-07-17 16:24:05.794";"1";"1";"1";"1";"0";"131";"130";"module.training_block4.exec-9666.GoNoGo4";;;;;;;;;;;;;;;;;;;;;;;;;;;;;;;;;;;;;"1241";"2014-07-17 16:16:17.821";"NST_correctLoc";"15";"1";"FINISHED";"RIGHT";"success";"382";"0";"2014-07-17 16:16:16.571";"2";;;;;;;;;;;;;;;;;;;;;;;;;;;;;;;;;;;;;;;;;;;;;;;;;;;;;;;;;;;;;
"zabaleta";"1994";;"Windows 7";"Rachel's Experiment (SCIAT)";"1.0";"1";"1";"1";"1";"1";"1";"2014-07-17 16:09:13.861";"2014-07-17 16:24:05.794";"1";"1";"1";"1";"0";"132";"131";"module.training_block4.exec-9666.GoNoGo4";;;;;;;;;;;;;;;;;;;;;;;;;;;;;;;;;;;;;"1247";"2014-07-17 16:16:20.341";"ST_correctStop";"1";"1";"FINISHED";"NONE";"success";"0";"1";"2014-07-17 16:16:19.091";"1";;;;;;;;;;;;;;;;;;;;;;;;;;;;;;;;;;;;;;;;;;;;;;;;;;;;;;;;;;;;;
"zabaleta";"1994";;"Windows 7";"Rachel's Experiment (SCIAT)";"1.0";"1";"1";"1";"1";"1";"1";"2014-07-17 16:09:13.861";"2014-07-17 16:24:05.794";"1";"1";"1";"1";"0";"133";"132";"module.training_block4.exec-9666.GoNoGo4";;;;;;;;;;;;;;;;;;;;;;;;;;;;;;;;;;;;;"1247";"2014-07-17 16:16:22.861";"ST_correctStop";"3";"1";"FINISHED";"NONE";"success";"0";"1";"2014-07-17 16:16:21.611";"1";;;;;;;;;;;;;;;;;;;;;;;;;;;;;;;;;;;;;;;;;;;;;;;;;;;;;;;;;;;;;
"zabaleta";"1994";;"Windows 7";"Rachel's Experiment (SCIAT)";"1.0";"1";"1";"1";"1";"1";"1";"2014-07-17 16:09:13.861";"2014-07-17 16:24:05.794";"1";"1";"1";"1";"0";"134";"133";"module.training_block4.exec-9666.GoNoGo4";;;;;;;;;;;;;;;;;;;;;;;;;;;;;;;;;;;;;"1247";"2014-07-17 16:16:25.381";"NST_correctLoc";"28";"0";"FINISHED";"LEFT";"success";"396";"0";"2014-07-17 16:16:24.131";"3";;;;;;;;;;;;;;;;;;;;;;;;;;;;;;;;;;;;;;;;;;;;;;;;;;;;;;;;;;;;;
"zabaleta";"1994";;"Windows 7";"Rachel's Experiment (SCIAT)";"1.0";"1";"1";"1";"1";"1";"1";"2014-07-17 16:09:13.861";"2014-07-17 16:24:05.794";"1";"1";"1";"1";"0";"135";"134";"module.training_block4.exec-9666.GoNoGo4";;;;;;;;;;;;;;;;;;;;;;;;;;;;;;;;;;;;;"1247";"2014-07-17 16:16:27.901";"NST_correctLoc";"14";"0";"FINISHED";"LEFT";"success";"412";"0";"2014-07-17 16:16:26.651";"2";;;;;;;;;;;;;;;;;;;;;;;;;;;;;;;;;;;;;;;;;;;;;;;;;;;;;;;;;;;;;
"zabaleta";"1994";;"Windows 7";"Rachel's Experiment (SCIAT)";"1.0";"1";"1";"1";"1";"1";"1";"2014-07-17 16:09:13.861";"2014-07-17 16:24:05.794";"1";"1";"1";"1";"0";"136";"135";"module.training_block4.exec-9666.GoNoGo4";;;;;;;;;;;;;;;;;;;;;;;;;;;;;;;;;;;;;"1247";"2014-07-17 16:16:30.421";"ST_correctStop";"31";"1";"FINISHED";"NONE";"success";"0";"1";"2014-07-17 16:16:29.171";"3";;;;;;;;;;;;;;;;;;;;;;;;;;;;;;;;;;;;;;;;;;;;;;;;;;;;;;;;;;;;;
"zabaleta";"1994";;"Windows 7";"Rachel's Experiment (SCIAT)";"1.0";"1";"1";"1";"1";"1";"1";"2014-07-17 16:09:13.861";"2014-07-17 16:24:05.794";"1";"1";"1";"1";"0";"137";"136";"module.training_block4.exec-9666.GoNoGo4";;;;;;;;;;;;;;;;;;;;;;;;;;;;;;;;;;;;;"1247";"2014-07-17 16:16:32.941";"ST_correctStop";"20";"1";"FINISHED";"NONE";"success";"0";"1";"2014-07-17 16:16:31.691";"3";;;;;;;;;;;;;;;;;;;;;;;;;;;;;;;;;;;;;;;;;;;;;;;;;;;;;;;;;;;;;
"zabaleta";"1994";;"Windows 7";"Rachel's Experiment (SCIAT)";"1.0";"1";"1";"1";"1";"1";"1";"2014-07-17 16:09:13.861";"2014-07-17 16:24:05.794";"1";"1";"1";"1";"0";"138";"137";"module.training_block4.exec-9666.GoNoGo4";;;;;;;;;;;;;;;;;;;;;;;;;;;;;;;;;;;;;"1247";"2014-07-17 16:16:35.461";"ST_correctStop";"6";"0";"FINISHED";"NONE";"success";"0";"1";"2014-07-17 16:16:34.211";"1";;;;;;;;;;;;;;;;;;;;;;;;;;;;;;;;;;;;;;;;;;;;;;;;;;;;;;;;;;;;;
"zabaleta";"1994";;"Windows 7";"Rachel's Experiment (SCIAT)";"1.0";"1";"1";"1";"1";"1";"1";"2014-07-17 16:09:13.861";"2014-07-17 16:24:05.794";"1";"1";"1";"1";"0";"139";"138";"module.training_block4.exec-9666.GoNoGo4";;;;;;;;;;;;;;;;;;;;;;;;;;;;;;;;;;;;;"1247";"2014-07-17 16:16:38.011";"NST_correctLoc";"26";"0";"FINISHED";"LEFT";"success";"366";"0";"2014-07-17 16:16:36.761";"3";;;;;;;;;;;;;;;;;;;;;;;;;;;;;;;;;;;;;;;;;;;;;;;;;;;;;;;;;;;;;
"zabaleta";"1994";;"Windows 7";"Rachel's Experiment (SCIAT)";"1.0";"1";"1";"1";"1";"1";"1";"2014-07-17 16:09:13.861";"2014-07-17 16:24:05.794";"1";"1";"1";"1";"0";"140";"139";"module.training_block4.exec-9666.GoNoGo4";;;;;;;;;;;;;;;;;;;;;;;;;;;;;;;;;;;;;"1247";"2014-07-17 16:16:40.531";"ST_correctStop";"24";"0";"FINISHED";"NONE";"success";"0";"1";"2014-07-17 16:16:39.281";"3";;;;;;;;;;;;;;;;;;;;;;;;;;;;;;;;;;;;;;;;;;;;;;;;;;;;;;;;;;;;;
"zabaleta";"1994";;"Windows 7";"Rachel's Experiment (SCIAT)";"1.0";"1";"1";"1";"1";"1";"1";"2014-07-17 16:09:13.861";"2014-07-17 16:24:05.794";"1";"1";"1";"1";"0";"141";"140";"module.training_block4.exec-9666.GoNoGo4";;;;;;;;;;;;;;;;;;;;;;;;;;;;;;;;;;;;;"1247";"2014-07-17 16:16:43.051";"ST_correctStop";"0";"0";"FINISHED";"NONE";"success";"0";"1";"2014-07-17 16:16:41.801";"1";;;;;;;;;;;;;;;;;;;;;;;;;;;;;;;;;;;;;;;;;;;;;;;;;;;;;;;;;;;;;
"zabaleta";"1994";;"Windows 7";"Rachel's Experiment (SCIAT)";"1.0";"1";"1";"1";"1";"1";"1";"2014-07-17 16:09:13.861";"2014-07-17 16:24:05.794";"1";"1";"1";"1";"0";"142";"141";"module.training_block4.exec-9666.GoNoGo4";;;;;;;;;;;;;;;;;;;;;;;;;;;;;;;;;;;;;"1247";"2014-07-17 16:16:45.571";"ST_correctStop";"22";"0";"FINISHED";"NONE";"success";"0";"1";"2014-07-17 16:16:44.321";"3";;;;;;;;;;;;;;;;;;;;;;;;;;;;;;;;;;;;;;;;;;;;;;;;;;;;;;;;;;;;;
"zabaleta";"1994";;"Windows 7";"Rachel's Experiment (SCIAT)";"1.0";"1";"1";"1";"1";"1";"1";"2014-07-17 16:09:13.861";"2014-07-17 16:24:05.794";"1";"1";"1";"1";"0";"143";"142";"module.training_block4.exec-9666.GoNoGo4";;;;;;;;;;;;;;;;;;;;;;;;;;;;;;;;;;;;;"1247";"2014-07-17 16:16:48.091";"NST_correctLoc";"9";"1";"FINISHED";"RIGHT";"success";"374";"0";"2014-07-17 16:16:46.841";"2";;;;;;;;;;;;;;;;;;;;;;;;;;;;;;;;;;;;;;;;;;;;;;;;;;;;;;;;;;;;;
"zabaleta";"1994";;"Windows 7";"Rachel's Experiment (SCIAT)";"1.0";"1";"1";"1";"1";"1";"1";"2014-07-17 16:09:13.861";"2014-07-17 16:24:05.794";"1";"1";"1";"1";"0";"144";"143";"module.training_block4.exec-9666.GoNoGo4";;;;;;;;;;;;;;;;;;;;;;;;;;;;;;;;;;;;;"1247";"2014-07-17 16:16:50.611";"NST_correctLoc";"34";"1";"FINISHED";"RIGHT";"success";"462";"0";"2014-07-17 16:16:49.361";"3";;;;;;;;;;;;;;;;;;;;;;;;;;;;;;;;;;;;;;;;;;;;;;;;;;;;;;;;;;;;;
"zabaleta";"1994";;"Windows 7";"Rachel's Experiment (SCIAT)";"1.0";"1";"1";"1";"1";"1";"1";"2014-07-17 16:09:13.861";"2014-07-17 16:24:05.794";"1";"1";"1";"1";"0";"145";"144";"module.training_block4.exec-9666.GoNoGo4";;;;;;;;;;;;;;;;;;;;;;;;;;;;;;;;;;;;;"1247";"2014-07-17 16:16:53.131";"NST_correctLoc";"27";"1";"FINISHED";"RIGHT";"success";"438";"0";"2014-07-17 16:16:51.881";"3";;;;;;;;;;;;;;;;;;;;;;;;;;;;;;;;;;;;;;;;;;;;;;;;;;;;;;;;;;;;;
"zabaleta";"1994";;"Windows 7";"Rachel's Experiment (SCIAT)";"1.0";"1";"1";"1";"1";"1";"1";"2014-07-17 16:09:13.861";"2014-07-17 16:24:05.794";"1";"1";"1";"1";"0";"146";"145";"module.training_block4.exec-9666.GoNoGo4";;;;;;;;;;;;;;;;;;;;;;;;;;;;;;;;;;;;;"1247";"2014-07-17 16:16:55.651";"ST_failedStop";"21";"1";"FINISHED";"RIGHT";"failure";"414";"1";"2014-07-17 16:16:54.401";"3";;;;;;;;;;;;;;;;;;;;;;;;;;;;;;;;;;;;;;;;;;;;;;;;;;;;;;;;;;;;;
"zabaleta";"1994";;"Windows 7";"Rachel's Experiment (SCIAT)";"1.0";"1";"1";"1";"1";"1";"1";"2014-07-17 16:09:13.861";"2014-07-17 16:24:05.794";"1";"1";"1";"1";"0";"147";"146";"module.training_block4.exec-9666.GoNoGo4";;;;;;;;;;;;;;;;;;;;;;;;;;;;;;;;;;;;;"1247";"2014-07-17 16:16:58.181";"ST_correctStop";"8";"1";"FINISHED";"NONE";"success";"0";"1";"2014-07-17 16:16:56.931";"1";;;;;;;;;;;;;;;;;;;;;;;;;;;;;;;;;;;;;;;;;;;;;;;;;;;;;;;;;;;;;
"zabaleta";"1994";;"Windows 7";"Rachel's Experiment (SCIAT)";"1.0";"1";"1";"1";"1";"1";"1";"2014-07-17 16:09:13.861";"2014-07-17 16:24:05.794";"1";"1";"1";"1";"0";"148";"147";"module.training_block4.exec-9666.GoNoGo4";;;;;;;;;;;;;;;;;;;;;;;;;;;;;;;;;;;;;"1247";"2014-07-17 16:17:00.711";"NST_correctLoc";"29";"1";"FINISHED";"RIGHT";"success";"450";"0";"2014-07-17 16:16:59.461";"3";;;;;;;;;;;;;;;;;;;;;;;;;;;;;;;;;;;;;;;;;;;;;;;;;;;;;;;;;;;;;
"zabaleta";"1994";;"Windows 7";"Rachel's Experiment (SCIAT)";"1.0";"1";"1";"1";"1";"1";"1";"2014-07-17 16:09:13.861";"2014-07-17 16:24:05.794";"1";"1";"1";"1";"0";"149";"148";"module.training_block4.exec-9666.GoNoGo4";;;;;;;;;;;;;;;;;;;;;;;;;;;;;;;;;;;;;"1247";"2014-07-17 16:17:03.231";"NST_correctLoc";"30";"0";"FINISHED";"LEFT";"success";"386";"0";"2014-07-17 16:17:01.981";"3";;;;;;;;;;;;;;;;;;;;;;;;;;;;;;;;;;;;;;;;;;;;;;;;;;;;;;;;;;;;;
"zabaleta";"1994";;"Windows 7";"Rachel's Experiment (SCIAT)";"1.0";"1";"1";"1";"1";"1";"1";"2014-07-17 16:09:13.861";"2014-07-17 16:24:05.794";"1";"1";"1";"1";"0";"150";"149";"module.training_block4.exec-9666.GoNoGo4";;;;;;;;;;;;;;;;;;;;;;;;;;;;;;;;;;;;;"1249";"2014-07-17 16:17:05.751";"NST_correctLoc";"10";"1";"FINISHED";"RIGHT";"success";"500";"0";"2014-07-17 16:17:04.501";"2";;;;;;;;;;;;;;;;;;;;;;;;;;;;;;;;;;;;;;;;;;;;;;;;;;;;;;;;;;;;;
"zabaleta";"1994";;"Windows 7";"Rachel's Experiment (SCIAT)";"1.0";"1";"1";"1";"1";"1";"1";"2014-07-17 16:09:13.861";"2014-07-17 16:24:05.794";"1";"1";"1";"1";"0";"151";"150";"module.training_block4.exec-9666.GoNoGo4";;;;;;;;;;;;;;;;;;;;;;;;;;;;;;;;;;;;;"1247";"2014-07-17 16:17:08.271";"NST_correctLoc";"11";"1";"FINISHED";"RIGHT";"success";"458";"0";"2014-07-17 16:17:07.021";"2";;;;;;;;;;;;;;;;;;;;;;;;;;;;;;;;;;;;;;;;;;;;;;;;;;;;;;;;;;;;;
"zabaleta";"1994";;"Windows 7";"Rachel's Experiment (SCIAT)";"1.0";"1";"1";"1";"1";"1";"1";"2014-07-17 16:09:13.861";"2014-07-17 16:24:05.794";"1";"1";"1";"1";"0";"152";"151";"module.training_block4.exec-9666.GoNoGo4";;;;;;;;;;;;;;;;;;;;;;;;;;;;;;;;;;;;;"1249";"2014-07-17 16:17:10.791";"ST_correctStop";"4";"0";"FINISHED";"NONE";"success";"0";"1";"2014-07-17 16:17:09.541";"1";;;;;;;;;;;;;;;;;;;;;;;;;;;;;;;;;;;;;;;;;;;;;;;;;;;;;;;;;;;;;
"zabaleta";"1994";;"Windows 7";"Rachel's Experiment (SCIAT)";"1.0";"1";"1";"1";"1";"1";"1";"2014-07-17 16:09:13.861";"2014-07-17 16:24:05.794";"1";"1";"1";"1";"0";"153";"152";"module.training_block4.exec-9666.GoNoGo4";;;;;;;;;;;;;;;;;;;;;;;;;;;;;;;;;;;;;"1247";"2014-07-17 16:17:13.311";"ST_correctStop";"7";"0";"FINISHED";"NONE";"success";"0";"1";"2014-07-17 16:17:12.061";"1";;;;;;;;;;;;;;;;;;;;;;;;;;;;;;;;;;;;;;;;;;;;;;;;;;;;;;;;;;;;;
"zabaleta";"1994";;"Windows 7";"Rachel's Experiment (SCIAT)";"1.0";"1";"1";"1";"1";"1";"1";"2014-07-17 16:09:13.861";"2014-07-17 16:24:05.794";"1";"1";"1";"1";"0";"154";"153";"module.training_block4.exec-9666.GoNoGo4";;;;;;;;;;;;;;;;;;;;;;;;;;;;;;;;;;;;;"1247";"2014-07-17 16:17:15.831";"ST_correctStop";"2";"1";"FINISHED";"NONE";"success";"0";"1";"2014-07-17 16:17:14.581";"1";;;;;;;;;;;;;;;;;;;;;;;;;;;;;;;;;;;;;;;;;;;;;;;;;;;;;;;;;;;;;
"zabaleta";"1994";;"Windows 7";"Rachel's Experiment (SCIAT)";"1.0";"1";"1";"1";"1";"1";"1";"2014-07-17 16:09:13.861";"2014-07-17 16:24:05.794";"1";"1";"1";"1";"0";"155";"154";"module.training_block4.exec-9666.GoNoGo4";;;;;;;;;;;;;;;;;;;;;;;;;;;;;;;;;;;;;"1247";"2014-07-17 16:17:18.351";"ST_correctStop";"33";"0";"FINISHED";"NONE";"success";"0";"1";"2014-07-17 16:17:17.101";"3";;;;;;;;;;;;;;;;;;;;;;;;;;;;;;;;;;;;;;;;;;;;;;;;;;;;;;;;;;;;;
"zabaleta";"1994";;"Windows 7";"Rachel's Experiment (SCIAT)";"1.0";"1";"1";"1";"1";"1";"1";"2014-07-17 16:09:13.861";"2014-07-17 16:24:05.794";"1";"1";"1";"1";"0";"156";"155";"module.training_block4.exec-9666.GoNoGo4";;;;;;;;;;;;;;;;;;;;;;;;;;;;;;;;;;;;;"1247";"2014-07-17 16:17:20.871";"ST_correctStop";"25";"0";"FINISHED";"NONE";"success";"0";"1";"2014-07-17 16:17:19.621";"3";;;;;;;;;;;;;;;;;;;;;;;;;;;;;;;;;;;;;;;;;;;;;;;;;;;;;;;;;;;;;
"zabaleta";"1994";;"Windows 7";"Rachel's Experiment (SCIAT)";"1.0";"1";"1";"1";"1";"1";"1";"2014-07-17 16:09:13.861";"2014-07-17 16:24:05.794";"1";"1";"1";"1";"0";"157";"156";"module.training_block4.exec-9666.GoNoGo4";;;;;;;;;;;;;;;;;;;;;;;;;;;;;;;;;;;;;"1247";"2014-07-17 16:17:23.391";"NST_correctLoc";"32";"0";"FINISHED";"LEFT";"success";"418";"0";"2014-07-17 16:17:22.141";"3";;;;;;;;;;;;;;;;;;;;;;;;;;;;;;;;;;;;;;;;;;;;;;;;;;;;;;;;;;;;;
"zabaleta";"1994";;"Windows 7";"Rachel's Experiment (SCIAT)";"1.0";"1";"1";"1";"1";"1";"1";"2014-07-17 16:09:13.861";"2014-07-17 16:24:05.794";"1";"1";"1";"1";"0";"158";"157";"module.training_block4.exec-9666.GoNoGo4";;;;;;;;;;;;;;;;;;;;;;;;;;;;;;;;;;;;;"1247";"2014-07-17 16:17:25.911";"NST_correctLoc";"12";"0";"FINISHED";"LEFT";"success";"394";"0";"2014-07-17 16:17:24.661";"2";;;;;;;;;;;;;;;;;;;;;;;;;;;;;;;;;;;;;;;;;;;;;;;;;;;;;;;;;;;;;
"zabaleta";"1994";;"Windows 7";"Rachel's Experiment (SCIAT)";"1.0";"1";"1";"1";"1";"1";"1";"2014-07-17 16:09:13.861";"2014-07-17 16:24:05.794";"1";"1";"1";"1";"0";"159";"158";"module.training_block4.exec-9666.GoNoGo4";;;;;;;;;;;;;;;;;;;;;;;;;;;;;;;;;;;;;"1247";"2014-07-17 16:17:28.431";"NST_correctLoc";"23";"0";"FINISHED";"LEFT";"success";"442";"0";"2014-07-17 16:17:27.181";"3";;;;;;;;;;;;;;;;;;;;;;;;;;;;;;;;;;;;;;;;;;;;;;;;;;;;;;;;;;;;;
"zabaleta";"1994";;"Windows 7";"Rachel's Experiment (SCIAT)";"1.0";"1";"1";"1";"1";"1";"1";"2014-07-17 16:09:13.861";"2014-07-17 16:24:05.794";"1";"1";"1";"1";"0";"160";"159";"module.IAT_practice1.exec-9229.IAT_Practice1";;;;;;;;;;;;;;;;;;;;;;;;;;;;;;;;;;;;;;;;;;;;;;;;;;;;;;;;;;;;;;;;;;;;;;;;;;;;;;;;;;;;;;;;;;"1705";"2014-07-17 16:17:57.271";"FINISHED";"UNPLEASANT";"success";"859";"2014-07-17 16:17:55.561";"IAT_UPpractice.csv";"1";"nasty";;;;;;;;;;
"zabaleta";"1994";;"Windows 7";"Rachel's Experiment (SCIAT)";"1.0";"1";"1";"1";"1";"1";"1";"2014-07-17 16:09:13.861";"2014-07-17 16:24:05.794";"1";"1";"1";"1";"0";"161";"160";"module.IAT_practice1.exec-9229.IAT_Practice1";;;;;;;;;;;;;;;;;;;;;;;;;;;;;;;;;;;;;;;;;;;;;;;;;;;;;;;;;;;;;;;;;;;;;;;;;;;;;;;;;;;;;;;;;;"1697";"2014-07-17 16:17:59.011";"FINISHED";"UNPLEASANT";"success";"552";"2014-07-17 16:17:57.311";"IAT_UPpractice.csv";"1";"awful";;;;;;;;;;
"zabaleta";"1994";;"Windows 7";"Rachel's Experiment (SCIAT)";"1.0";"1";"1";"1";"1";"1";"1";"2014-07-17 16:09:13.861";"2014-07-17 16:24:05.794";"1";"1";"1";"1";"0";"162";"161";"module.IAT_practice1.exec-9229.IAT_Practice1";;;;;;;;;;;;;;;;;;;;;;;;;;;;;;;;;;;;;;;;;;;;;;;;;;;;;;;;;;;;;;;;;;;;;;;;;;;;;;;;;;;;;;;;;;"1694";"2014-07-17 16:18:00.731";"FINISHED";"UNPLEASANT";"success";"501";"2014-07-17 16:17:59.031";"IAT_UPpractice.csv";"1";"nasty";;;;;;;;;;
"zabaleta";"1994";;"Windows 7";"Rachel's Experiment (SCIAT)";"1.0";"1";"1";"1";"1";"1";"1";"2014-07-17 16:09:13.861";"2014-07-17 16:24:05.794";"1";"1";"1";"1";"0";"163";"162";"module.IAT_practice1.exec-9229.IAT_Practice1";;;;;;;;;;;;;;;;;;;;;;;;;;;;;;;;;;;;;;;;;;;;;;;;;;;;;;;;;;;;;;;;;;;;;;;;;;;;;;;;;;;;;;;;;;"1692";"2014-07-17 16:18:02.461";"FINISHED";"NEUTRAL";"success";"769";"2014-07-17 16:18:00.761";"IAT_UPpractice.csv";"2";"adequate";;;;;;;;;;
"zabaleta";"1994";;"Windows 7";"Rachel's Experiment (SCIAT)";"1.0";"1";"1";"1";"1";"1";"1";"2014-07-17 16:09:13.861";"2014-07-17 16:24:05.794";"1";"1";"1";"1";"0";"164";"163";"module.IAT_practice1.exec-9229.IAT_Practice1";;;;;;;;;;;;;;;;;;;;;;;;;;;;;;;;;;;;;;;;;;;;;;;;;;;;;;;;;;;;;;;;;;;;;;;;;;;;;;;;;;;;;;;;;;"1698";"2014-07-17 16:18:04.211";"FINISHED";"NEUTRAL";"success";"689";"2014-07-17 16:18:02.511";"IAT_UPpractice.csv";"2";"general";;;;;;;;;;
"zabaleta";"1994";;"Windows 7";"Rachel's Experiment (SCIAT)";"1.0";"1";"1";"1";"1";"1";"1";"2014-07-17 16:09:13.861";"2014-07-17 16:24:05.794";"1";"1";"1";"1";"0";"165";"164";"module.IAT_practice1.exec-9229.IAT_Practice1";;;;;;;;;;;;;;;;;;;;;;;;;;;;;;;;;;;;;;;;;;;;;;;;;;;;;;;;;;;;;;;;;;;;;;;;;;;;;;;;;;;;;;;;;;"1698";"2014-07-17 16:18:05.951";"FINISHED";"UNPLEASANT";"success";"589";"2014-07-17 16:18:04.251";"IAT_UPpractice.csv";"1";"revolting";;;;;;;;;;
"zabaleta";"1994";;"Windows 7";"Rachel's Experiment (SCIAT)";"1.0";"1";"1";"1";"1";"1";"1";"2014-07-17 16:09:13.861";"2014-07-17 16:24:05.794";"1";"1";"1";"1";"0";"166";"165";"module.IAT_practice1.exec-9229.IAT_Practice1";;;;;;;;;;;;;;;;;;;;;;;;;;;;;;;;;;;;;;;;;;;;;;;;;;;;;;;;;;;;;;;;;;;;;;;;;;;;;;;;;;;;;;;;;;"1693";"2014-07-17 16:18:07.681";"FINISHED";"UNPLEASANT";"success";"542";"2014-07-17 16:18:05.981";"IAT_UPpractice.csv";"1";"horrible";;;;;;;;;;
"zabaleta";"1994";;"Windows 7";"Rachel's Experiment (SCIAT)";"1.0";"1";"1";"1";"1";"1";"1";"2014-07-17 16:09:13.861";"2014-07-17 16:24:05.794";"1";"1";"1";"1";"0";"167";"166";"module.IAT_practice1.exec-9229.IAT_Practice1";;;;;;;;;;;;;;;;;;;;;;;;;;;;;;;;;;;;;;;;;;;;;;;;;;;;;;;;;;;;;;;;;;;;;;;;;;;;;;;;;;;;;;;;;;"1698";"2014-07-17 16:18:09.421";"FINISHED";"NEUTRAL";"success";"740";"2014-07-17 16:18:07.721";"IAT_UPpractice.csv";"2";"moderate";;;;;;;;;;
"zabaleta";"1994";;"Windows 7";"Rachel's Experiment (SCIAT)";"1.0";"1";"1";"1";"1";"1";"1";"2014-07-17 16:09:13.861";"2014-07-17 16:24:05.794";"1";"1";"1";"1";"0";"168";"167";"module.IAT_practice1.exec-9229.IAT_Practice1";;;;;;;;;;;;;;;;;;;;;;;;;;;;;;;;;;;;;;;;;;;;;;;;;;;;;;;;;;;;;;;;;;;;;;;;;;;;;;;;;;;;;;;;;;"1699";"2014-07-17 16:18:11.161";"FINISHED";"NEUTRAL";"success";"516";"2014-07-17 16:18:09.461";"IAT_UPpractice.csv";"2";"average";;;;;;;;;;
"zabaleta";"1994";;"Windows 7";"Rachel's Experiment (SCIAT)";"1.0";"1";"1";"1";"1";"1";"1";"2014-07-17 16:09:13.861";"2014-07-17 16:24:05.794";"1";"1";"1";"1";"0";"169";"168";"module.IAT_practice1.exec-9229.IAT_Practice1";;;;;;;;;;;;;;;;;;;;;;;;;;;;;;;;;;;;;;;;;;;;;;;;;;;;;;;;;;;;;;;;;;;;;;;;;;;;;;;;;;;;;;;;;;"1698";"2014-07-17 16:18:12.901";"FINISHED";"NEUTRAL";"success";"591";"2014-07-17 16:18:11.201";"IAT_UPpractice.csv";"2";"ordinary";;;;;;;;;;
"zabaleta";"1994";;"Windows 7";"Rachel's Experiment (SCIAT)";"1.0";"1";"1";"1";"1";"1";"1";"2014-07-17 16:09:13.861";"2014-07-17 16:24:05.794";"1";"1";"1";"1";"0";"170";"169";"module.IAT_practice1.exec-9229.IAT_Practice1";;;;;;;;;;;;;;;;;;;;;;;;;;;;;;;;;;;;;;;;;;;;;;;;;;;;;;;;;;;;;;;;;;;;;;;;;;;;;;;;;;;;;;;;;;"1698";"2014-07-17 16:18:14.641";"FINISHED";"NEUTRAL";"success";"867";"2014-07-17 16:18:12.941";"IAT_UPpractice.csv";"2";"undefined";;;;;;;;;;
"zabaleta";"1994";;"Windows 7";"Rachel's Experiment (SCIAT)";"1.0";"1";"1";"1";"1";"1";"1";"2014-07-17 16:09:13.861";"2014-07-17 16:24:05.794";"1";"1";"1";"1";"0";"171";"170";"module.IAT_practice1.exec-9229.IAT_Practice1";;;;;;;;;;;;;;;;;;;;;;;;;;;;;;;;;;;;;;;;;;;;;;;;;;;;;;;;;;;;;;;;;;;;;;;;;;;;;;;;;;;;;;;;;;"1692";"2014-07-17 16:18:16.361";"FINISHED";"NEUTRAL";"success";"541";"2014-07-17 16:18:14.661";"IAT_UPpractice.csv";"2";"undefined";;;;;;;;;;
"zabaleta";"1994";;"Windows 7";"Rachel's Experiment (SCIAT)";"1.0";"1";"1";"1";"1";"1";"1";"2014-07-17 16:09:13.861";"2014-07-17 16:24:05.794";"1";"1";"1";"1";"0";"172";"171";"module.IAT_practice1.exec-9229.IAT_Practice1";;;;;;;;;;;;;;;;;;;;;;;;;;;;;;;;;;;;;;;;;;;;;;;;;;;;;;;;;;;;;;;;;;;;;;;;;;;;;;;;;;;;;;;;;;"1694";"2014-07-17 16:18:18.081";"FINISHED";"NEUTRAL";"success";"550";"2014-07-17 16:18:16.381";"IAT_UPpractice.csv";"2";"general";;;;;;;;;;
"zabaleta";"1994";;"Windows 7";"Rachel's Experiment (SCIAT)";"1.0";"1";"1";"1";"1";"1";"1";"2014-07-17 16:09:13.861";"2014-07-17 16:24:05.794";"1";"1";"1";"1";"0";"173";"172";"module.IAT_practice1.exec-9229.IAT_Practice1";;;;;;;;;;;;;;;;;;;;;;;;;;;;;;;;;;;;;;;;;;;;;;;;;;;;;;;;;;;;;;;;;;;;;;;;;;;;;;;;;;;;;;;;;;"1698";"2014-07-17 16:18:19.821";"FINISHED";"UNPLEASANT";"success";"591";"2014-07-17 16:18:18.121";"IAT_UPpractice.csv";"1";"bad";;;;;;;;;;
"zabaleta";"1994";;"Windows 7";"Rachel's Experiment (SCIAT)";"1.0";"1";"1";"1";"1";"1";"1";"2014-07-17 16:09:13.861";"2014-07-17 16:24:05.794";"1";"1";"1";"1";"0";"174";"173";"module.IAT_practice1.exec-9229.IAT_Practice1";;;;;;;;;;;;;;;;;;;;;;;;;;;;;;;;;;;;;;;;;;;;;;;;;;;;;;;;;;;;;;;;;;;;;;;;;;;;;;;;;;;;;;;;;;"1694";"2014-07-17 16:18:21.541";"FINISHED";"UNPLEASANT";"success";"491";"2014-07-17 16:18:19.841";"IAT_UPpractice.csv";"1";"horrible";;;;;;;;;;
"zabaleta";"1994";;"Windows 7";"Rachel's Experiment (SCIAT)";"1.0";"1";"1";"1";"1";"1";"1";"2014-07-17 16:09:13.861";"2014-07-17 16:24:05.794";"1";"1";"1";"1";"0";"175";"174";"module.IAT_practice1.exec-9229.IAT_Practice1";;;;;;;;;;;;;;;;;;;;;;;;;;;;;;;;;;;;;;;;;;;;;;;;;;;;;;;;;;;;;;;;;;;;;;;;;;;;;;;;;;;;;;;;;;"1694";"2014-07-17 16:18:23.261";"FINISHED";"NEUTRAL";"success";"563";"2014-07-17 16:18:21.561";"IAT_UPpractice.csv";"2";"moderate";;;;;;;;;;
"zabaleta";"1994";;"Windows 7";"Rachel's Experiment (SCIAT)";"1.0";"1";"1";"1";"1";"1";"1";"2014-07-17 16:09:13.861";"2014-07-17 16:24:05.794";"1";"1";"1";"1";"0";"176";"175";"module.IAT_practice1.exec-9229.IAT_Practice1";;;;;;;;;;;;;;;;;;;;;;;;;;;;;;;;;;;;;;;;;;;;;;;;;;;;;;;;;;;;;;;;;;;;;;;;;;;;;;;;;;;;;;;;;;"1692";"2014-07-17 16:18:24.991";"FINISHED";"UNPLEASANT";"success";"590";"2014-07-17 16:18:23.291";"IAT_UPpractice.csv";"1";"disgusting";;;;;;;;;;
"zabaleta";"1994";;"Windows 7";"Rachel's Experiment (SCIAT)";"1.0";"1";"1";"1";"1";"1";"1";"2014-07-17 16:09:13.861";"2014-07-17 16:24:05.794";"1";"1";"1";"1";"0";"177";"176";"module.IAT_practice1.exec-9229.IAT_Practice1";;;;;;;;;;;;;;;;;;;;;;;;;;;;;;;;;;;;;;;;;;;;;;;;;;;;;;;;;;;;;;;;;;;;;;;;;;;;;;;;;;;;;;;;;;"1693";"2014-07-17 16:18:26.711";"FINISHED";"NEUTRAL";"success";"512";"2014-07-17 16:18:25.011";"IAT_UPpractice.csv";"2";"ordinary";;;;;;;;;;
"zabaleta";"1994";;"Windows 7";"Rachel's Experiment (SCIAT)";"1.0";"1";"1";"1";"1";"1";"1";"2014-07-17 16:09:13.861";"2014-07-17 16:24:05.794";"1";"1";"1";"1";"0";"178";"177";"module.IAT_practice1.exec-9229.IAT_Practice1";;;;;;;;;;;;;;;;;;;;;;;;;;;;;;;;;;;;;;;;;;;;;;;;;;;;;;;;;;;;;;;;;;;;;;;;;;;;;;;;;;;;;;;;;;"1694";"2014-07-17 16:18:28.431";"FINISHED";"UNPLEASANT";"success";"425";"2014-07-17 16:18:26.731";"IAT_UPpractice.csv";"1";"revolting";;;;;;;;;;
"zabaleta";"1994";;"Windows 7";"Rachel's Experiment (SCIAT)";"1.0";"1";"1";"1";"1";"1";"1";"2014-07-17 16:09:13.861";"2014-07-17 16:24:05.794";"1";"1";"1";"1";"0";"179";"178";"module.IAT_practice1.exec-9229.IAT_Practice1";;;;;;;;;;;;;;;;;;;;;;;;;;;;;;;;;;;;;;;;;;;;;;;;;;;;;;;;;;;;;;;;;;;;;;;;;;;;;;;;;;;;;;;;;;"1698";"2014-07-17 16:18:30.161";"FINISHED";"NEUTRAL";"success";"483";"2014-07-17 16:18:28.461";"IAT_UPpractice.csv";"2";"average";;;;;;;;;;
"zabaleta";"1994";;"Windows 7";"Rachel's Experiment (SCIAT)";"1.0";"1";"1";"1";"1";"1";"1";"2014-07-17 16:09:13.861";"2014-07-17 16:24:05.794";"1";"1";"1";"1";"0";"180";"179";"module.IAT_practice1.exec-9229.IAT_Practice1";;;;;;;;;;;;;;;;;;;;;;;;;;;;;;;;;;;;;;;;;;;;;;;;;;;;;;;;;;;;;;;;;;;;;;;;;;;;;;;;;;;;;;;;;;"1694";"2014-07-17 16:18:31.881";"FINISHED";"UNPLEASANT";"success";"415";"2014-07-17 16:18:30.181";"IAT_UPpractice.csv";"1";"awful";;;;;;;;;;
"zabaleta";"1994";;"Windows 7";"Rachel's Experiment (SCIAT)";"1.0";"1";"1";"1";"1";"1";"1";"2014-07-17 16:09:13.861";"2014-07-17 16:24:05.794";"1";"1";"1";"1";"0";"181";"180";"module.IAT_practice1.exec-9229.IAT_Practice1";;;;;;;;;;;;;;;;;;;;;;;;;;;;;;;;;;;;;;;;;;;;;;;;;;;;;;;;;;;;;;;;;;;;;;;;;;;;;;;;;;;;;;;;;;"1694";"2014-07-17 16:18:33.601";"FINISHED";"UNPLEASANT";"success";"527";"2014-07-17 16:18:31.901";"IAT_UPpractice.csv";"1";"bad";;;;;;;;;;
"zabaleta";"1994";;"Windows 7";"Rachel's Experiment (SCIAT)";"1.0";"1";"1";"1";"1";"1";"1";"2014-07-17 16:09:13.861";"2014-07-17 16:24:05.794";"1";"1";"1";"1";"0";"182";"181";"module.IAT_practice1.exec-9229.IAT_Practice1";;;;;;;;;;;;;;;;;;;;;;;;;;;;;;;;;;;;;;;;;;;;;;;;;;;;;;;;;;;;;;;;;;;;;;;;;;;;;;;;;;;;;;;;;;"1693";"2014-07-17 16:18:35.321";"FINISHED";"NEUTRAL";"success";"509";"2014-07-17 16:18:33.621";"IAT_UPpractice.csv";"2";"adequate";;;;;;;;;;
"zabaleta";"1994";;"Windows 7";"Rachel's Experiment (SCIAT)";"1.0";"1";"1";"1";"1";"1";"1";"2014-07-17 16:09:13.861";"2014-07-17 16:24:05.794";"1";"1";"1";"1";"0";"183";"182";"module.IAT_practice1.exec-9229.IAT_Practice1";;;;;;;;;;;;;;;;;;;;;;;;;;;;;;;;;;;;;;;;;;;;;;;;;;;;;;;;;;;;;;;;;;;;;;;;;;;;;;;;;;;;;;;;;;"1694";"2014-07-17 16:18:37.041";"FINISHED";"UNPLEASANT";"success";"503";"2014-07-17 16:18:35.341";"IAT_UPpractice.csv";"1";"disgusting";;;;;;;;;;
"zabaleta";"1994";;"Windows 7";"Rachel's Experiment (SCIAT)";"1.0";"1";"1";"1";"1";"1";"1";"2014-07-17 16:09:13.861";"2014-07-17 16:24:05.794";"1";"1";"1";"1";"0";"184";"183";"module.IAT_Block1.exec-2110.IAT_block1";;;;;;;;;;;;;;;;;;;;;;;;;;;;;;;;;;;;;;;;;;;;;;;;;;;;;;;;;;;;;;;;;;;;;;"1697";"2014-07-17 16:18:53.662";"FINISHED";"UNPLEASANT";"success";"1037";"2014-07-17 16:18:51.962";"IAT_UPN.csv";"1";"nasty";;;;;;;;;;;;;;;;;;;;;;;;;;;;;;
"zabaleta";"1994";;"Windows 7";"Rachel's Experiment (SCIAT)";"1.0";"1";"1";"1";"1";"1";"1";"2014-07-17 16:09:13.861";"2014-07-17 16:24:05.794";"1";"1";"1";"1";"0";"185";"184";"module.IAT_Block1.exec-2110.IAT_block1";;;;;;;;;;;;;;;;;;;;;;;;;;;;;;;;;;;;;;;;;;;;;;;;;;;;;;;;;;;;;;;;;;;;;;"1694";"2014-07-17 16:18:55.392";"FINISHED";"NEUTRAL";"success";"832";"2014-07-17 16:18:53.692";"IAT_UPN.csv";"2";"A1";;;;;;;;;;;;;;;;;;;;;;;;;;;;;;
"zabaleta";"1994";;"Windows 7";"Rachel's Experiment (SCIAT)";"1.0";"1";"1";"1";"1";"1";"1";"2014-07-17 16:09:13.861";"2014-07-17 16:24:05.794";"1";"1";"1";"1";"0";"186";"185";"module.IAT_Block1.exec-2110.IAT_block1";;;;;;;;;;;;;;;;;;;;;;;;;;;;;;;;;;;;;;;;;;;;;;;;;;;;;;;;;;;;;;;;;;;;;;"1694";"2014-07-17 16:18:57.112";"FINISHED";"UNPLEASANT";"success";"441";"2014-07-17 16:18:55.412";"IAT_UPN.csv";"1";"awful";;;;;;;;;;;;;;;;;;;;;;;;;;;;;;
"zabaleta";"1994";;"Windows 7";"Rachel's Experiment (SCIAT)";"1.0";"1";"1";"1";"1";"1";"1";"2014-07-17 16:09:13.861";"2014-07-17 16:24:05.794";"1";"1";"1";"1";"0";"187";"186";"module.IAT_Block1.exec-2110.IAT_block1";;;;;;;;;;;;;;;;;;;;;;;;;;;;;;;;;;;;;;;;;;;;;;;;;;;;;;;;;;;;;;;;;;;;;;"1694";"2014-07-17 16:18:58.842";"FINISHED";"NEUTRAL";"success";"471";"2014-07-17 16:18:57.142";"IAT_UPN.csv";"2";"A3";;;;;;;;;;;;;;;;;;;;;;;;;;;;;;
"zabaleta";"1994";;"Windows 7";"Rachel's Experiment (SCIAT)";"1.0";"1";"1";"1";"1";"1";"1";"2014-07-17 16:09:13.861";"2014-07-17 16:24:05.794";"1";"1";"1";"1";"0";"188";"187";"module.IAT_Block1.exec-2110.IAT_block1";;;;;;;;;;;;;;;;;;;;;;;;;;;;;;;;;;;;;;;;;;;;;;;;;;;;;;;;;;;;;;;;;;;;;;"1705";"2014-07-17 16:19:00.572";"FINISHED";"UNPLEASANT";"failure";"423";"2014-07-17 16:18:58.862";"IAT_UPN.csv";"2";"undefined";;;;;;;;;;;;;;;;;;;;;;;;;;;;;;
"zabaleta";"1994";;"Windows 7";"Rachel's Experiment (SCIAT)";"1.0";"1";"1";"1";"1";"1";"1";"2014-07-17 16:09:13.861";"2014-07-17 16:24:05.794";"1";"1";"1";"1";"0";"189";"188";"module.IAT_Block1.exec-2110.IAT_block1";;;;;;;;;;;;;;;;;;;;;;;;;;;;;;;;;;;;;;;;;;;;;;;;;;;;;;;;;;;;;;;;;;;;;;"1694";"2014-07-17 16:19:02.292";"FINISHED";"NEUTRAL";"success";"1029";"2014-07-17 16:19:00.592";"IAT_UPN.csv";"2";"moderate";;;;;;;;;;;;;;;;;;;;;;;;;;;;;;
"zabaleta";"1994";;"Windows 7";"Rachel's Experiment (SCIAT)";"1.0";"1";"1";"1";"1";"1";"1";"2014-07-17 16:09:13.861";"2014-07-17 16:24:05.794";"1";"1";"1";"1";"0";"190";"189";"module.IAT_Block1.exec-2110.IAT_block1";;;;;;;;;;;;;;;;;;;;;;;;;;;;;;;;;;;;;;;;;;;;;;;;;;;;;;;;;;;;;;;;;;;;;;"1694";"2014-07-17 16:19:04.012";"FINISHED";"UNPLEASANT";"success";"589";"2014-07-17 16:19:02.312";"IAT_UPN.csv";"1";"revolting";;;;;;;;;;;;;;;;;;;;;;;;;;;;;;
"zabaleta";"1994";;"Windows 7";"Rachel's Experiment (SCIAT)";"1.0";"1";"1";"1";"1";"1";"1";"2014-07-17 16:09:13.861";"2014-07-17 16:24:05.794";"1";"1";"1";"1";"0";"191";"190";"module.IAT_Block1.exec-2110.IAT_block1";;;;;;;;;;;;;;;;;;;;;;;;;;;;;;;;;;;;;;;;;;;;;;;;;;;;;;;;;;;;;;;;;;;;;;"1694";"2014-07-17 16:19:05.732";"FINISHED";"UNPLEASANT";"success";"668";"2014-07-17 16:19:04.032";"IAT_UPN.csv";"1";"awful";;;;;;;;;;;;;;;;;;;;;;;;;;;;;;
"zabaleta";"1994";;"Windows 7";"Rachel's Experiment (SCIAT)";"1.0";"1";"1";"1";"1";"1";"1";"2014-07-17 16:09:13.861";"2014-07-17 16:24:05.794";"1";"1";"1";"1";"0";"192";"191";"module.IAT_Block1.exec-2110.IAT_block1";;;;;;;;;;;;;;;;;;;;;;;;;;;;;;;;;;;;;;;;;;;;;;;;;;;;;;;;;;;;;;;;;;;;;;"1694";"2014-07-17 16:19:07.452";"FINISHED";"NEUTRAL";"success";"549";"2014-07-17 16:19:05.752";"IAT_UPN.csv";"2";"average";;;;;;;;;;;;;;;;;;;;;;;;;;;;;;
"zabaleta";"1994";;"Windows 7";"Rachel's Experiment (SCIAT)";"1.0";"1";"1";"1";"1";"1";"1";"2014-07-17 16:09:13.861";"2014-07-17 16:24:05.794";"1";"1";"1";"1";"0";"193";"192";"module.IAT_Block1.exec-2110.IAT_block1";;;;;;;;;;;;;;;;;;;;;;;;;;;;;;;;;;;;;;;;;;;;;;;;;;;;;;;;;;;;;;;;;;;;;;"1694";"2014-07-17 16:19:09.172";"FINISHED";"UNPLEASANT";"success";"445";"2014-07-17 16:19:07.472";"IAT_UPN.csv";"1";"bad";;;;;;;;;;;;;;;;;;;;;;;;;;;;;;
"zabaleta";"1994";;"Windows 7";"Rachel's Experiment (SCIAT)";"1.0";"1";"1";"1";"1";"1";"1";"2014-07-17 16:09:13.861";"2014-07-17 16:24:05.794";"1";"1";"1";"1";"0";"194";"193";"module.IAT_Block1.exec-2110.IAT_block1";;;;;;;;;;;;;;;;;;;;;;;;;;;;;;;;;;;;;;;;;;;;;;;;;;;;;;;;;;;;;;;;;;;;;;"1692";"2014-07-17 16:19:10.902";"FINISHED";"NEUTRAL";"success";"473";"2014-07-17 16:19:09.202";"IAT_UPN.csv";"2";"A5";;;;;;;;;;;;;;;;;;;;;;;;;;;;;;
"zabaleta";"1994";;"Windows 7";"Rachel's Experiment (SCIAT)";"1.0";"1";"1";"1";"1";"1";"1";"2014-07-17 16:09:13.861";"2014-07-17 16:24:05.794";"1";"1";"1";"1";"0";"195";"194";"module.IAT_Block1.exec-2110.IAT_block1";;;;;;;;;;;;;;;;;;;;;;;;;;;;;;;;;;;;;;;;;;;;;;;;;;;;;;;;;;;;;;;;;;;;;;"1694";"2014-07-17 16:19:12.622";"FINISHED";"UNPLEASANT";"success";"554";"2014-07-17 16:19:10.922";"IAT_UPN.csv";"1";"disgusting";;;;;;;;;;;;;;;;;;;;;;;;;;;;;;
"zabaleta";"1994";;"Windows 7";"Rachel's Experiment (SCIAT)";"1.0";"1";"1";"1";"1";"1";"1";"2014-07-17 16:09:13.861";"2014-07-17 16:24:05.794";"1";"1";"1";"1";"0";"196";"195";"module.IAT_Block1.exec-2110.IAT_block1";;;;;;;;;;;;;;;;;;;;;;;;;;;;;;;;;;;;;;;;;;;;;;;;;;;;;;;;;;;;;;;;;;;;;;"1694";"2014-07-17 16:19:14.342";"FINISHED";"NEUTRAL";"success";"579";"2014-07-17 16:19:12.642";"IAT_UPN.csv";"2";"general";;;;;;;;;;;;;;;;;;;;;;;;;;;;;;
"zabaleta";"1994";;"Windows 7";"Rachel's Experiment (SCIAT)";"1.0";"1";"1";"1";"1";"1";"1";"2014-07-17 16:09:13.861";"2014-07-17 16:24:05.794";"1";"1";"1";"1";"0";"197";"196";"module.IAT_Block1.exec-2110.IAT_block1";;;;;;;;;;;;;;;;;;;;;;;;;;;;;;;;;;;;;;;;;;;;;;;;;;;;;;;;;;;;;;;;;;;;;;"1698";"2014-07-17 16:19:16.052";"FINISHED";"NEUTRAL";"success";"592";"2014-07-17 16:19:14.352";"IAT_UPN.csv";"2";"A3";;;;;;;;;;;;;;;;;;;;;;;;;;;;;;
"zabaleta";"1994";;"Windows 7";"Rachel's Experiment (SCIAT)";"1.0";"1";"1";"1";"1";"1";"1";"2014-07-17 16:09:13.861";"2014-07-17 16:24:05.794";"1";"1";"1";"1";"0";"198";"197";"module.IAT_Block1.exec-2110.IAT_block1";;;;;;;;;;;;;;;;;;;;;;;;;;;;;;;;;;;;;;;;;;;;;;;;;;;;;;;;;;;;;;;;;;;;;;"1694";"2014-07-17 16:19:17.772";"FINISHED";"NEUTRAL";"success";"581";"2014-07-17 16:19:16.072";"IAT_UPN.csv";"2";"ordinary";;;;;;;;;;;;;;;;;;;;;;;;;;;;;;
"zabaleta";"1994";;"Windows 7";"Rachel's Experiment (SCIAT)";"1.0";"1";"1";"1";"1";"1";"1";"2014-07-17 16:09:13.861";"2014-07-17 16:24:05.794";"1";"1";"1";"1";"0";"199";"198";"module.IAT_Block1.exec-2110.IAT_block1";;;;;;;;;;;;;;;;;;;;;;;;;;;;;;;;;;;;;;;;;;;;;;;;;;;;;;;;;;;;;;;;;;;;;;"1697";"2014-07-17 16:19:19.502";"FINISHED";"UNPLEASANT";"success";"485";"2014-07-17 16:19:17.802";"IAT_UPN.csv";"1";"disgusting";;;;;;;;;;;;;;;;;;;;;;;;;;;;;;
"zabaleta";"1994";;"Windows 7";"Rachel's Experiment (SCIAT)";"1.0";"1";"1";"1";"1";"1";"1";"2014-07-17 16:09:13.861";"2014-07-17 16:24:05.794";"1";"1";"1";"1";"0";"200";"199";"module.IAT_Block1.exec-2110.IAT_block1";;;;;;;;;;;;;;;;;;;;;;;;;;;;;;;;;;;;;;;;;;;;;;;;;;;;;;;;;;;;;;;;;;;;;;"1694";"2014-07-17 16:19:21.222";"FINISHED";"UNPLEASANT";"success";"547";"2014-07-17 16:19:19.522";"IAT_UPN.csv";"1";"revolting";;;;;;;;;;;;;;;;;;;;;;;;;;;;;;
"zabaleta";"1994";;"Windows 7";"Rachel's Experiment (SCIAT)";"1.0";"1";"1";"1";"1";"1";"1";"2014-07-17 16:09:13.861";"2014-07-17 16:24:05.794";"1";"1";"1";"1";"0";"201";"200";"module.IAT_Block1.exec-2110.IAT_block1";;;;;;;;;;;;;;;;;;;;;;;;;;;;;;;;;;;;;;;;;;;;;;;;;;;;;;;;;;;;;;;;;;;;;;"1694";"2014-07-17 16:19:22.952";"FINISHED";"NEUTRAL";"success";"505";"2014-07-17 16:19:21.252";"IAT_UPN.csv";"2";"A2";;;;;;;;;;;;;;;;;;;;;;;;;;;;;;
"zabaleta";"1994";;"Windows 7";"Rachel's Experiment (SCIAT)";"1.0";"1";"1";"1";"1";"1";"1";"2014-07-17 16:09:13.861";"2014-07-17 16:24:05.794";"1";"1";"1";"1";"0";"202";"201";"module.IAT_Block1.exec-2110.IAT_block1";;;;;;;;;;;;;;;;;;;;;;;;;;;;;;;;;;;;;;;;;;;;;;;;;;;;;;;;;;;;;;;;;;;;;;"1696";"2014-07-17 16:19:24.684";"FINISHED";"NEUTRAL";"success";"447";"2014-07-17 16:19:22.982";"IAT_UPN.csv";"2";"A0";;;;;;;;;;;;;;;;;;;;;;;;;;;;;;
"zabaleta";"1994";;"Windows 7";"Rachel's Experiment (SCIAT)";"1.0";"1";"1";"1";"1";"1";"1";"2014-07-17 16:09:13.861";"2014-07-17 16:24:05.794";"1";"1";"1";"1";"0";"203";"202";"module.IAT_Block1.exec-2110.IAT_block1";;;;;;;;;;;;;;;;;;;;;;;;;;;;;;;;;;;;;;;;;;;;;;;;;;;;;;;;;;;;;;;;;;;;;;"1700";"2014-07-17 16:19:26.411";"FINISHED";"UNPLEASANT";"success";"428";"2014-07-17 16:19:24.710";"IAT_UPN.csv";"1";"nasty";;;;;;;;;;;;;;;;;;;;;;;;;;;;;;
"zabaleta";"1994";;"Windows 7";"Rachel's Experiment (SCIAT)";"1.0";"1";"1";"1";"1";"1";"1";"2014-07-17 16:09:13.861";"2014-07-17 16:24:05.794";"1";"1";"1";"1";"0";"204";"203";"module.IAT_Block1.exec-2110.IAT_block1";;;;;;;;;;;;;;;;;;;;;;;;;;;;;;;;;;;;;;;;;;;;;;;;;;;;;;;;;;;;;;;;;;;;;;"1700";"2014-07-17 16:19:28.137";"FINISHED";"NEUTRAL";"success";"429";"2014-07-17 16:19:26.436";"IAT_UPN.csv";"2";"A5";;;;;;;;;;;;;;;;;;;;;;;;;;;;;;
"zabaleta";"1994";;"Windows 7";"Rachel's Experiment (SCIAT)";"1.0";"1";"1";"1";"1";"1";"1";"2014-07-17 16:09:13.861";"2014-07-17 16:24:05.794";"1";"1";"1";"1";"0";"205";"204";"module.IAT_Block1.exec-2110.IAT_block1";;;;;;;;;;;;;;;;;;;;;;;;;;;;;;;;;;;;;;;;;;;;;;;;;;;;;;;;;;;;;;;;;;;;;;"1702";"2014-07-17 16:19:29.865";"FINISHED";"UNPLEASANT";"success";"591";"2014-07-17 16:19:28.163";"IAT_UPN.csv";"1";"nasty";;;;;;;;;;;;;;;;;;;;;;;;;;;;;;
"zabaleta";"1994";;"Windows 7";"Rachel's Experiment (SCIAT)";"1.0";"1";"1";"1";"1";"1";"1";"2014-07-17 16:09:13.861";"2014-07-17 16:24:05.794";"1";"1";"1";"1";"0";"206";"205";"module.IAT_Block1.exec-2110.IAT_block1";;;;;;;;;;;;;;;;;;;;;;;;;;;;;;;;;;;;;;;;;;;;;;;;;;;;;;;;;;;;;;;;;;;;;;"1700";"2014-07-17 16:19:31.591";"FINISHED";"NEUTRAL";"success";"503";"2014-07-17 16:19:29.891";"IAT_UPN.csv";"2";"A1";;;;;;;;;;;;;;;;;;;;;;;;;;;;;;
"zabaleta";"1994";;"Windows 7";"Rachel's Experiment (SCIAT)";"1.0";"1";"1";"1";"1";"1";"1";"2014-07-17 16:09:13.861";"2014-07-17 16:24:05.794";"1";"1";"1";"1";"0";"207";"206";"module.IAT_Block1.exec-2110.IAT_block1";;;;;;;;;;;;;;;;;;;;;;;;;;;;;;;;;;;;;;;;;;;;;;;;;;;;;;;;;;;;;;;;;;;;;;"1701";"2014-07-17 16:19:33.311";"FINISHED";"NEUTRAL";"success";"433";"2014-07-17 16:19:31.609";"IAT_UPN.csv";"2";"A2";;;;;;;;;;;;;;;;;;;;;;;;;;;;;;
"zabaleta";"1994";;"Windows 7";"Rachel's Experiment (SCIAT)";"1.0";"1";"1";"1";"1";"1";"1";"2014-07-17 16:09:13.861";"2014-07-17 16:24:05.794";"1";"1";"1";"1";"0";"208";"207";"module.IAT_Block1.exec-2110.IAT_block1";;;;;;;;;;;;;;;;;;;;;;;;;;;;;;;;;;;;;;;;;;;;;;;;;;;;;;;;;;;;;;;;;;;;;;"1700";"2014-07-17 16:19:35.037";"FINISHED";"UNPLEASANT";"success";"433";"2014-07-17 16:19:33.336";"IAT_UPN.csv";"1";"awful";;;;;;;;;;;;;;;;;;;;;;;;;;;;;;
"zabaleta";"1994";;"Windows 7";"Rachel's Experiment (SCIAT)";"1.0";"1";"1";"1";"1";"1";"1";"2014-07-17 16:09:13.861";"2014-07-17 16:24:05.794";"1";"1";"1";"1";"0";"209";"208";"module.IAT_Block1.exec-2110.IAT_block1";;;;;;;;;;;;;;;;;;;;;;;;;;;;;;;;;;;;;;;;;;;;;;;;;;;;;;;;;;;;;;;;;;;;;;"1700";"2014-07-17 16:19:36.763";"FINISHED";"NEUTRAL";"success";"435";"2014-07-17 16:19:35.062";"IAT_UPN.csv";"2";"A0";;;;;;;;;;;;;;;;;;;;;;;;;;;;;;
"zabaleta";"1994";;"Windows 7";"Rachel's Experiment (SCIAT)";"1.0";"1";"1";"1";"1";"1";"1";"2014-07-17 16:09:13.861";"2014-07-17 16:24:05.794";"1";"1";"1";"1";"0";"210";"209";"module.IAT_Block1.exec-2110.IAT_block1";;;;;;;;;;;;;;;;;;;;;;;;;;;;;;;;;;;;;;;;;;;;;;;;;;;;;;;;;;;;;;;;;;;;;;"1700";"2014-07-17 16:19:38.489";"FINISHED";"UNPLEASANT";"failure";"453";"2014-07-17 16:19:36.788";"IAT_UPN.csv";"2";"adequate";;;;;;;;;;;;;;;;;;;;;;;;;;;;;;
"zabaleta";"1994";;"Windows 7";"Rachel's Experiment (SCIAT)";"1.0";"1";"1";"1";"1";"1";"1";"2014-07-17 16:09:13.861";"2014-07-17 16:24:05.794";"1";"1";"1";"1";"0";"211";"210";"module.IAT_Block1.exec-2110.IAT_block1";;;;;;;;;;;;;;;;;;;;;;;;;;;;;;;;;;;;;;;;;;;;;;;;;;;;;;;;;;;;;;;;;;;;;;"1700";"2014-07-17 16:19:40.216";"FINISHED";"NEUTRAL";"success";"463";"2014-07-17 16:19:38.514";"IAT_UPN.csv";"2";"A1";;;;;;;;;;;;;;;;;;;;;;;;;;;;;;
"zabaleta";"1994";;"Windows 7";"Rachel's Experiment (SCIAT)";"1.0";"1";"1";"1";"1";"1";"1";"2014-07-17 16:09:13.861";"2014-07-17 16:24:05.794";"1";"1";"1";"1";"0";"212";"211";"module.IAT_Block1.exec-2110.IAT_block1";;;;;;;;;;;;;;;;;;;;;;;;;;;;;;;;;;;;;;;;;;;;;;;;;;;;;;;;;;;;;;;;;;;;;;"1701";"2014-07-17 16:19:41.943";"FINISHED";"NEUTRAL";"success";"841";"2014-07-17 16:19:40.241";"IAT_UPN.csv";"2";"moderate";;;;;;;;;;;;;;;;;;;;;;;;;;;;;;
"zabaleta";"1994";;"Windows 7";"Rachel's Experiment (SCIAT)";"1.0";"1";"1";"1";"1";"1";"1";"2014-07-17 16:09:13.861";"2014-07-17 16:24:05.794";"1";"1";"1";"1";"0";"213";"212";"module.IAT_Block1.exec-2110.IAT_block1";;;;;;;;;;;;;;;;;;;;;;;;;;;;;;;;;;;;;;;;;;;;;;;;;;;;;;;;;;;;;;;;;;;;;;"1700";"2014-07-17 16:19:43.671";"FINISHED";"NEUTRAL";"success";"656";"2014-07-17 16:19:41.970";"IAT_UPN.csv";"2";"general";;;;;;;;;;;;;;;;;;;;;;;;;;;;;;
"zabaleta";"1994";;"Windows 7";"Rachel's Experiment (SCIAT)";"1.0";"1";"1";"1";"1";"1";"1";"2014-07-17 16:09:13.861";"2014-07-17 16:24:05.794";"1";"1";"1";"1";"0";"214";"213";"module.IAT_Block1.exec-2110.IAT_block1";;;;;;;;;;;;;;;;;;;;;;;;;;;;;;;;;;;;;;;;;;;;;;;;;;;;;;;;;;;;;;;;;;;;;;"1700";"2014-07-17 16:19:45.397";"FINISHED";"UNPLEASANT";"success";"641";"2014-07-17 16:19:43.696";"IAT_UPN.csv";"1";"revolting";;;;;;;;;;;;;;;;;;;;;;;;;;;;;;
"zabaleta";"1994";;"Windows 7";"Rachel's Experiment (SCIAT)";"1.0";"1";"1";"1";"1";"1";"1";"2014-07-17 16:09:13.861";"2014-07-17 16:24:05.794";"1";"1";"1";"1";"0";"215";"214";"module.IAT_Block1.exec-2110.IAT_block1";;;;;;;;;;;;;;;;;;;;;;;;;;;;;;;;;;;;;;;;;;;;;;;;;;;;;;;;;;;;;;;;;;;;;;"1701";"2014-07-17 16:19:47.124";"FINISHED";"UNPLEASANT";"success";"587";"2014-07-17 16:19:45.423";"IAT_UPN.csv";"1";"revolting";;;;;;;;;;;;;;;;;;;;;;;;;;;;;;
"zabaleta";"1994";;"Windows 7";"Rachel's Experiment (SCIAT)";"1.0";"1";"1";"1";"1";"1";"1";"2014-07-17 16:09:13.861";"2014-07-17 16:24:05.794";"1";"1";"1";"1";"0";"216";"215";"module.IAT_Block1.exec-2110.IAT_block1";;;;;;;;;;;;;;;;;;;;;;;;;;;;;;;;;;;;;;;;;;;;;;;;;;;;;;;;;;;;;;;;;;;;;;"1700";"2014-07-17 16:19:48.850";"FINISHED";"UNPLEASANT";"success";"501";"2014-07-17 16:19:47.149";"IAT_UPN.csv";"1";"nasty";;;;;;;;;;;;;;;;;;;;;;;;;;;;;;
"zabaleta";"1994";;"Windows 7";"Rachel's Experiment (SCIAT)";"1.0";"1";"1";"1";"1";"1";"1";"2014-07-17 16:09:13.861";"2014-07-17 16:24:05.794";"1";"1";"1";"1";"0";"217";"216";"module.IAT_Block1.exec-2110.IAT_block1";;;;;;;;;;;;;;;;;;;;;;;;;;;;;;;;;;;;;;;;;;;;;;;;;;;;;;;;;;;;;;;;;;;;;;"1701";"2014-07-17 16:19:50.585";"FINISHED";"NEUTRAL";"success";"558";"2014-07-17 16:19:48.884";"IAT_UPN.csv";"2";"A4";;;;;;;;;;;;;;;;;;;;;;;;;;;;;;
"zabaleta";"1994";;"Windows 7";"Rachel's Experiment (SCIAT)";"1.0";"1";"1";"1";"1";"1";"1";"2014-07-17 16:09:13.861";"2014-07-17 16:24:05.794";"1";"1";"1";"1";"0";"218";"217";"module.IAT_Block1.exec-2110.IAT_block1";;;;;;;;;;;;;;;;;;;;;;;;;;;;;;;;;;;;;;;;;;;;;;;;;;;;;;;;;;;;;;;;;;;;;;"1701";"2014-07-17 16:19:52.312";"FINISHED";"NEUTRAL";"success";"431";"2014-07-17 16:19:50.611";"IAT_UPN.csv";"2";"A4";;;;;;;;;;;;;;;;;;;;;;;;;;;;;;
"zabaleta";"1994";;"Windows 7";"Rachel's Experiment (SCIAT)";"1.0";"1";"1";"1";"1";"1";"1";"2014-07-17 16:09:13.861";"2014-07-17 16:24:05.794";"1";"1";"1";"1";"0";"219";"218";"module.IAT_Block1.exec-2110.IAT_block1";;;;;;;;;;;;;;;;;;;;;;;;;;;;;;;;;;;;;;;;;;;;;;;;;;;;;;;;;;;;;;;;;;;;;;"1700";"2014-07-17 16:19:54.038";"FINISHED";"NEUTRAL";"success";"464";"2014-07-17 16:19:52.337";"IAT_UPN.csv";"2";"A0";;;;;;;;;;;;;;;;;;;;;;;;;;;;;;
