"user.name";"user.yearOfBirth";"user.sex";"user.osName";"module.name";"module.version";"module.online.subject.code";"module.online.study.id";"module.online.module.nr";"module.online.group.nr";"session.id";"session.index";"session.startTime";"session.endTime";"session.completed";"session.node-3481.blockOrder";"session.node-3481.IATorder";"session.node-3481.keyOrder";"session.node-3829.blockOrder";"session.node-3829.IATorder";"session.node-3829.keyOrder";"session.node-6764.blockOrder";"session.node-6764.IATorder";"session.node-6764.keyOrder";"session.node-7631.conditionType";"session.node-8799.conditionType";"session.node-9337.conditionType";"trial.id";"trial.index";"trial.name";"trial.GoNoGo1.durationTime";"trial.GoNoGo1.endTime";"trial.GoNoGo1.Error Type";"trial.GoNoGo1.icon";"trial.GoNoGo1.location";"trial.GoNoGo1.outcome";"trial.GoNoGo1.response";"trial.GoNoGo1.result";"trial.GoNoGo1.RT";"trial.GoNoGo1.signal";"trial.GoNoGo1.startTime";"trial.GoNoGo1.stimulus type";"trial.GoNoGo2.durationTime";"trial.GoNoGo2.endTime";"trial.GoNoGo2.Error Type";"trial.GoNoGo2.icon";"trial.GoNoGo2.location";"trial.GoNoGo2.outcome";"trial.GoNoGo2.response";"trial.GoNoGo2.result";"trial.GoNoGo2.RT";"trial.GoNoGo2.signal";"trial.GoNoGo2.startTime";"trial.GoNoGo2.stimulus type";"trial.GoNoGo3.durationTime";"trial.GoNoGo3.endTime";"trial.GoNoGo3.Error Type";"trial.GoNoGo3.icon";"trial.GoNoGo3.location";"trial.GoNoGo3.outcome";"trial.GoNoGo3.response";"trial.GoNoGo3.result";"trial.GoNoGo3.RT";"trial.GoNoGo3.signal";"trial.GoNoGo3.startTime";"trial.GoNoGo3.stimulus type";"trial.GoNoGo4.durationTime";"trial.GoNoGo4.endTime";"trial.GoNoGo4.Error Type";"trial.GoNoGo4.icon";"trial.GoNoGo4.location";"trial.GoNoGo4.outcome";"trial.GoNoGo4.response";"trial.GoNoGo4.result";"trial.GoNoGo4.RT";"trial.GoNoGo4.signal";"trial.GoNoGo4.startTime";"trial.GoNoGo4.stimulus type";"trial.GoNoGo_Practice.durationTime";"trial.GoNoGo_Practice.endTime";"trial.GoNoGo_Practice.icon";"trial.GoNoGo_Practice.location";"trial.GoNoGo_Practice.outcome";"trial.GoNoGo_Practice.response";"trial.GoNoGo_Practice.result";"trial.GoNoGo_Practice.RT";"trial.GoNoGo_Practice.signal";"trial.GoNoGo_Practice.startTime";"trial.GoNoGo_Practice.stimulus type";"trial.GoNoGo_Tutorial.durationTime";"trial.GoNoGo_Tutorial.endTime";"trial.GoNoGo_Tutorial.icon";"trial.GoNoGo_Tutorial.location";"trial.GoNoGo_Tutorial.outcome";"trial.GoNoGo_Tutorial.response";"trial.GoNoGo_Tutorial.result";"trial.GoNoGo_Tutorial.RT";"trial.GoNoGo_Tutorial.signal";"trial.GoNoGo_Tutorial.startTime";"trial.IAT_block1.durationTime";"trial.IAT_block1.endTime";"trial.IAT_block1.outcome";"trial.IAT_block1.response";"trial.IAT_block1.result";"trial.IAT_block1.RT";"trial.IAT_block1.startTime";"trial.IAT_block1.Stimfile";"trial.IAT_block1.stimType";"trial.IAT_block1.word";"trial.IAT_Practice1.durationTime";"trial.IAT_Practice1.endTime";"trial.IAT_Practice1.outcome";"trial.IAT_Practice1.response";"trial.IAT_Practice1.result";"trial.IAT_Practice1.RT";"trial.IAT_Practice1.startTime";"trial.IAT_Practice1.Stimfile";"trial.IAT_Practice1.stimType";"trial.IAT_Practice1.word"
"RGN078";"1987";;"Windows 7";"Rachel's Experiment (SCIAT)";"1.0";"1";"1";"1";"1";"3";"3";"2014-09-09 23:00:03.474";"2014-09-09 23:12:46.377";"1";;;;;;;"1";"1";"0";;;"0";"1";"0";"module.GoNoGotutorial.exec-9467.GoNoGo_Tutorial";;;;;;;;;;;;;;;;;;;;;;;;;;;;;;;;;;;;;;;;;;;;;;;;;;;;;;;;;;;;"4001";"2014-09-09 23:01:04.029";"leftResponse";"0";"FINISHED";"NONE";"failure";"0";"0";"2014-09-09 23:01:00.027";;;;;;;;;;;;;;;;;;;;
"RGN078";"1987";;"Windows 7";"Rachel's Experiment (SCIAT)";"1.0";"1";"1";"1";"1";"3";"3";"2014-09-09 23:00:03.474";"2014-09-09 23:12:46.377";"1";;;;;;;"1";"1";"0";;;"0";"2";"1";"module.GoNoGotutorial.exec-9467.GoNoGo_Tutorial";;;;;;;;;;;;;;;;;;;;;;;;;;;;;;;;;;;;;;;;;;;;;;;;;;;;;;;;;;;;"3999";"2014-09-09 23:01:09.382";"rightResponse";"1";"FINISHED";"NONE";"failure";"0";"0";"2014-09-09 23:01:05.382";;;;;;;;;;;;;;;;;;;;
"RGN078";"1987";;"Windows 7";"Rachel's Experiment (SCIAT)";"1.0";"1";"1";"1";"1";"3";"3";"2014-09-09 23:00:03.474";"2014-09-09 23:12:46.377";"1";;;;;;;"1";"1";"0";;;"0";"3";"2";"module.GoNoGotutorial.exec-9467.GoNoGo_Tutorial";;;;;;;;;;;;;;;;;;;;;;;;;;;;;;;;;;;;;;;;;;;;;;;;;;;;;;;;;;;;"4000";"2014-09-09 23:01:14.723";"quickResponse";"0";"FINISHED";"NONE";"failure";"0";"0";"2014-09-09 23:01:10.723";;;;;;;;;;;;;;;;;;;;
"RGN078";"1987";;"Windows 7";"Rachel's Experiment (SCIAT)";"1.0";"1";"1";"1";"1";"3";"3";"2014-09-09 23:00:03.474";"2014-09-09 23:12:46.377";"1";;;;;;;"1";"1";"0";;;"0";"4";"3";"module.GoNoGopractice.exec-1385.GoNoGo_Practice";;;;;;;;;;;;;;;;;;;;;;;;;;;;;;;;;;;;;;;;;;;;;;;;;"1989";"2014-09-09 23:01:23.072";"18";"0";"FINISHED";"LEFT";"success";"525";"0";"2014-09-09 23:01:21.082";"3";;;;;;;;;;;;;;;;;;;;;;;;;;;;;;
"RGN078";"1987";;"Windows 7";"Rachel's Experiment (SCIAT)";"1.0";"1";"1";"1";"1";"3";"3";"2014-09-09 23:00:03.474";"2014-09-09 23:12:46.377";"1";;;;;;;"1";"1";"0";;;"0";"5";"4";"module.GoNoGopractice.exec-1385.GoNoGo_Practice";;;;;;;;;;;;;;;;;;;;;;;;;;;;;;;;;;;;;;;;;;;;;;;;;"1950";"2014-09-09 23:01:26.365";"21";"1";"FINISHED";"RIGHT";"success";"317";"0";"2014-09-09 23:01:24.414";"3";;;;;;;;;;;;;;;;;;;;;;;;;;;;;;
"RGN078";"1987";;"Windows 7";"Rachel's Experiment (SCIAT)";"1.0";"1";"1";"1";"1";"3";"3";"2014-09-09 23:00:03.474";"2014-09-09 23:12:46.377";"1";;;;;;;"1";"1";"0";;;"0";"6";"5";"module.GoNoGopractice.exec-1385.GoNoGo_Practice";;;;;;;;;;;;;;;;;;;;;;;;;;;;;;;;;;;;;;;;;;;;;;;;;"1950";"2014-09-09 23:01:29.653";"14";"1";"FINISHED";"RIGHT";"success";"352";"0";"2014-09-09 23:01:27.702";"2";;;;;;;;;;;;;;;;;;;;;;;;;;;;;;
"RGN078";"1987";;"Windows 7";"Rachel's Experiment (SCIAT)";"1.0";"1";"1";"1";"1";"3";"3";"2014-09-09 23:00:03.474";"2014-09-09 23:12:46.377";"1";;;;;;;"1";"1";"0";;;"0";"7";"6";"module.GoNoGopractice.exec-1385.GoNoGo_Practice";;;;;;;;;;;;;;;;;;;;;;;;;;;;;;;;;;;;;;;;;;;;;;;;;"1950";"2014-09-09 23:01:32.910";"26";"0";"FINISHED";"LEFT";"success";"248";"0";"2014-09-09 23:01:30.959";"3";;;;;;;;;;;;;;;;;;;;;;;;;;;;;;
"RGN078";"1987";;"Windows 7";"Rachel's Experiment (SCIAT)";"1.0";"1";"1";"1";"1";"3";"3";"2014-09-09 23:00:03.474";"2014-09-09 23:12:46.377";"1";;;;;;;"1";"1";"0";;;"0";"8";"7";"module.GoNoGopractice.exec-1385.GoNoGo_Practice";;;;;;;;;;;;;;;;;;;;;;;;;;;;;;;;;;;;;;;;;;;;;;;;;"1951";"2014-09-09 23:01:36.168";"2";"0";"FINISHED";"LEFT";"success";"378";"0";"2014-09-09 23:01:34.217";"1";;;;;;;;;;;;;;;;;;;;;;;;;;;;;;
"RGN078";"1987";;"Windows 7";"Rachel's Experiment (SCIAT)";"1.0";"1";"1";"1";"1";"3";"3";"2014-09-09 23:00:03.474";"2014-09-09 23:12:46.377";"1";;;;;;;"1";"1";"0";;;"0";"9";"8";"module.GoNoGopractice.exec-1385.GoNoGo_Practice";;;;;;;;;;;;;;;;;;;;;;;;;;;;;;;;;;;;;;;;;;;;;;;;;"1950";"2014-09-09 23:01:39.424";"30";"0";"FINISHED";"LEFT";"success";"349";"0";"2014-09-09 23:01:37.473";"3";;;;;;;;;;;;;;;;;;;;;;;;;;;;;;
"RGN078";"1987";;"Windows 7";"Rachel's Experiment (SCIAT)";"1.0";"1";"1";"1";"1";"3";"3";"2014-09-09 23:00:03.474";"2014-09-09 23:12:46.377";"1";;;;;;;"1";"1";"0";;;"0";"10";"9";"module.GoNoGopractice.exec-1385.GoNoGo_Practice";;;;;;;;;;;;;;;;;;;;;;;;;;;;;;;;;;;;;;;;;;;;;;;;;"1950";"2014-09-09 23:01:42.697";"6";"1";"FINISHED";"RIGHT";"success";"368";"0";"2014-09-09 23:01:40.746";"1";;;;;;;;;;;;;;;;;;;;;;;;;;;;;;
"RGN078";"1987";;"Windows 7";"Rachel's Experiment (SCIAT)";"1.0";"1";"1";"1";"1";"3";"3";"2014-09-09 23:00:03.474";"2014-09-09 23:12:46.377";"1";;;;;;;"1";"1";"0";;;"0";"11";"10";"module.GoNoGopractice.exec-1385.GoNoGo_Practice";;;;;;;;;;;;;;;;;;;;;;;;;;;;;;;;;;;;;;;;;;;;;;;;;"1951";"2014-09-09 23:01:45.957";"34";"0";"FINISHED";"LEFT";"success";"343";"0";"2014-09-09 23:01:44.005";"3";;;;;;;;;;;;;;;;;;;;;;;;;;;;;;
"RGN078";"1987";;"Windows 7";"Rachel's Experiment (SCIAT)";"1.0";"1";"1";"1";"1";"3";"3";"2014-09-09 23:00:03.474";"2014-09-09 23:12:46.377";"1";;;;;;;"1";"1";"0";;;"0";"12";"11";"module.GoNoGopractice.exec-1385.GoNoGo_Practice";;;;;;;;;;;;;;;;;;;;;;;;;;;;;;;;;;;;;;;;;;;;;;;;;"1951";"2014-09-09 23:01:49.211";"23";"1";"FINISHED";"RIGHT";"success";"316";"0";"2014-09-09 23:01:47.259";"3";;;;;;;;;;;;;;;;;;;;;;;;;;;;;;
"RGN078";"1987";;"Windows 7";"Rachel's Experiment (SCIAT)";"1.0";"1";"1";"1";"1";"3";"3";"2014-09-09 23:00:03.474";"2014-09-09 23:12:46.377";"1";;;;;;;"1";"1";"0";;;"0";"13";"12";"module.GoNoGopractice.exec-1385.GoNoGo_Practice";;;;;;;;;;;;;;;;;;;;;;;;;;;;;;;;;;;;;;;;;;;;;;;;;"1950";"2014-09-09 23:01:52.493";"13";"0";"FINISHED";"LEFT";"success";"331";"0";"2014-09-09 23:01:50.542";"2";;;;;;;;;;;;;;;;;;;;;;;;;;;;;;
"RGN078";"1987";;"Windows 7";"Rachel's Experiment (SCIAT)";"1.0";"1";"1";"1";"1";"3";"3";"2014-09-09 23:00:03.474";"2014-09-09 23:12:46.377";"1";;;;;;;"1";"1";"0";;;"0";"14";"13";"module.GoNoGopractice.exec-1385.GoNoGo_Practice";;;;;;;;;;;;;;;;;;;;;;;;;;;;;;;;;;;;;;;;;;;;;;;;;"1951";"2014-09-09 23:01:55.750";"3";"1";"FINISHED";"RIGHT";"success";"384";"0";"2014-09-09 23:01:53.799";"1";;;;;;;;;;;;;;;;;;;;;;;;;;;;;;
"RGN078";"1987";;"Windows 7";"Rachel's Experiment (SCIAT)";"1.0";"1";"1";"1";"1";"3";"3";"2014-09-09 23:00:03.474";"2014-09-09 23:12:46.377";"1";;;;;;;"1";"1";"0";;;"0";"15";"14";"module.GoNoGopractice.exec-1385.GoNoGo_Practice";;;;;;;;;;;;;;;;;;;;;;;;;;;;;;;;;;;;;;;;;;;;;;;;;"1950";"2014-09-09 23:01:59.001";"27";"1";"FINISHED";"RIGHT";"success";"343";"0";"2014-09-09 23:01:57.050";"3";;;;;;;;;;;;;;;;;;;;;;;;;;;;;;
"RGN078";"1987";;"Windows 7";"Rachel's Experiment (SCIAT)";"1.0";"1";"1";"1";"1";"3";"3";"2014-09-09 23:00:03.474";"2014-09-09 23:12:46.377";"1";;;;;;;"1";"1";"0";;;"0";"16";"15";"module.training_block1.exec-9036.GoNoGo1";"1249";"2014-09-09 23:02:07.778";"NST_correctLoc";"34";"1";"FINISHED";"RIGHT";"success";"411";"0";"2014-09-09 23:02:06.528";"3";;;;;;;;;;;;;;;;;;;;;;;;;;;;;;;;;;;;;;;;;;;;;;;;;;;;;;;;;;;;;;;;;;;;;;;;;;;;;
"RGN078";"1987";;"Windows 7";"Rachel's Experiment (SCIAT)";"1.0";"1";"1";"1";"1";"3";"3";"2014-09-09 23:00:03.474";"2014-09-09 23:12:46.377";"1";;;;;;;"1";"1";"0";;;"0";"17";"16";"module.training_block1.exec-9036.GoNoGo1";"1250";"2014-09-09 23:02:10.316";"NST_correctLoc";"29";"1";"FINISHED";"RIGHT";"success";"445";"0";"2014-09-09 23:02:09.066";"3";;;;;;;;;;;;;;;;;;;;;;;;;;;;;;;;;;;;;;;;;;;;;;;;;;;;;;;;;;;;;;;;;;;;;;;;;;;;;
"RGN078";"1987";;"Windows 7";"Rachel's Experiment (SCIAT)";"1.0";"1";"1";"1";"1";"3";"3";"2014-09-09 23:00:03.474";"2014-09-09 23:12:46.377";"1";;;;;;;"1";"1";"0";;;"0";"18";"17";"module.training_block1.exec-9036.GoNoGo1";"1249";"2014-09-09 23:02:12.893";"NST_correctLoc";"4";"1";"FINISHED";"RIGHT";"success";"329";"0";"2014-09-09 23:02:11.643";"1";;;;;;;;;;;;;;;;;;;;;;;;;;;;;;;;;;;;;;;;;;;;;;;;;;;;;;;;;;;;;;;;;;;;;;;;;;;;;
"RGN078";"1987";;"Windows 7";"Rachel's Experiment (SCIAT)";"1.0";"1";"1";"1";"1";"3";"3";"2014-09-09 23:00:03.474";"2014-09-09 23:12:46.377";"1";;;;;;;"1";"1";"0";;;"0";"19";"18";"module.training_block1.exec-9036.GoNoGo1";"1249";"2014-09-09 23:02:15.450";"NST_correctLoc";"19";"1";"FINISHED";"RIGHT";"success";"407";"0";"2014-09-09 23:02:14.200";"3";;;;;;;;;;;;;;;;;;;;;;;;;;;;;;;;;;;;;;;;;;;;;;;;;;;;;;;;;;;;;;;;;;;;;;;;;;;;;
"RGN078";"1987";;"Windows 7";"Rachel's Experiment (SCIAT)";"1.0";"1";"1";"1";"1";"3";"3";"2014-09-09 23:00:03.474";"2014-09-09 23:12:46.377";"1";;;;;;;"1";"1";"0";;;"0";"20";"19";"module.training_block1.exec-9036.GoNoGo1";"1250";"2014-09-09 23:02:18.337";"NST_correctLoc";"0";"0";"FINISHED";"LEFT";"success";"314";"0";"2014-09-09 23:02:17.087";"1";;;;;;;;;;;;;;;;;;;;;;;;;;;;;;;;;;;;;;;;;;;;;;;;;;;;;;;;;;;;;;;;;;;;;;;;;;;;;
"RGN078";"1987";;"Windows 7";"Rachel's Experiment (SCIAT)";"1.0";"1";"1";"1";"1";"3";"3";"2014-09-09 23:00:03.474";"2014-09-09 23:12:46.377";"1";;;;;;;"1";"1";"0";;;"0";"21";"20";"module.training_block1.exec-9036.GoNoGo1";"1249";"2014-09-09 23:02:20.865";"NST_correctLoc";"3";"1";"FINISHED";"RIGHT";"success";"367";"0";"2014-09-09 23:02:19.615";"1";;;;;;;;;;;;;;;;;;;;;;;;;;;;;;;;;;;;;;;;;;;;;;;;;;;;;;;;;;;;;;;;;;;;;;;;;;;;;
"RGN078";"1987";;"Windows 7";"Rachel's Experiment (SCIAT)";"1.0";"1";"1";"1";"1";"3";"3";"2014-09-09 23:00:03.474";"2014-09-09 23:12:46.377";"1";;;;;;;"1";"1";"0";;;"0";"22";"21";"module.training_block1.exec-9036.GoNoGo1";"1249";"2014-09-09 23:02:23.391";"NST_correctLoc";"24";"1";"FINISHED";"RIGHT";"success";"340";"0";"2014-09-09 23:02:22.141";"3";;;;;;;;;;;;;;;;;;;;;;;;;;;;;;;;;;;;;;;;;;;;;;;;;;;;;;;;;;;;;;;;;;;;;;;;;;;;;
"RGN078";"1987";;"Windows 7";"Rachel's Experiment (SCIAT)";"1.0";"1";"1";"1";"1";"3";"3";"2014-09-09 23:00:03.474";"2014-09-09 23:12:46.377";"1";;;;;;;"1";"1";"0";;;"0";"23";"22";"module.training_block1.exec-9036.GoNoGo1";"1250";"2014-09-09 23:02:25.925";"NST_correctLoc";"7";"0";"FINISHED";"LEFT";"success";"282";"0";"2014-09-09 23:02:24.675";"1";;;;;;;;;;;;;;;;;;;;;;;;;;;;;;;;;;;;;;;;;;;;;;;;;;;;;;;;;;;;;;;;;;;;;;;;;;;;;
"RGN078";"1987";;"Windows 7";"Rachel's Experiment (SCIAT)";"1.0";"1";"1";"1";"1";"3";"3";"2014-09-09 23:00:03.474";"2014-09-09 23:12:46.377";"1";;;;;;;"1";"1";"0";;;"0";"24";"23";"module.training_block1.exec-9036.GoNoGo1";"1249";"2014-09-09 23:02:28.546";"NST_correctLoc";"17";"1";"FINISHED";"RIGHT";"success";"272";"0";"2014-09-09 23:02:27.296";"2";;;;;;;;;;;;;;;;;;;;;;;;;;;;;;;;;;;;;;;;;;;;;;;;;;;;;;;;;;;;;;;;;;;;;;;;;;;;;
"RGN078";"1987";;"Windows 7";"Rachel's Experiment (SCIAT)";"1.0";"1";"1";"1";"1";"3";"3";"2014-09-09 23:00:03.474";"2014-09-09 23:12:46.377";"1";;;;;;;"1";"1";"0";;;"0";"25";"24";"module.training_block1.exec-9036.GoNoGo1";"1249";"2014-09-09 23:02:31.073";"NST_correctLoc";"8";"1";"FINISHED";"RIGHT";"success";"325";"0";"2014-09-09 23:02:29.823";"1";;;;;;;;;;;;;;;;;;;;;;;;;;;;;;;;;;;;;;;;;;;;;;;;;;;;;;;;;;;;;;;;;;;;;;;;;;;;;
"RGN078";"1987";;"Windows 7";"Rachel's Experiment (SCIAT)";"1.0";"1";"1";"1";"1";"3";"3";"2014-09-09 23:00:03.474";"2014-09-09 23:12:46.377";"1";;;;;;;"1";"1";"0";;;"0";"26";"25";"module.training_block1.exec-9036.GoNoGo1";"1250";"2014-09-09 23:02:33.604";"NST_correctLoc";"35";"1";"FINISHED";"RIGHT";"success";"343";"0";"2014-09-09 23:02:32.354";"3";;;;;;;;;;;;;;;;;;;;;;;;;;;;;;;;;;;;;;;;;;;;;;;;;;;;;;;;;;;;;;;;;;;;;;;;;;;;;
"RGN078";"1987";;"Windows 7";"Rachel's Experiment (SCIAT)";"1.0";"1";"1";"1";"1";"3";"3";"2014-09-09 23:00:03.474";"2014-09-09 23:12:46.377";"1";;;;;;;"1";"1";"0";;;"0";"27";"26";"module.training_block1.exec-9036.GoNoGo1";"1249";"2014-09-09 23:02:36.148";"NST_correctLoc";"27";"1";"FINISHED";"RIGHT";"success";"362";"0";"2014-09-09 23:02:34.898";"3";;;;;;;;;;;;;;;;;;;;;;;;;;;;;;;;;;;;;;;;;;;;;;;;;;;;;;;;;;;;;;;;;;;;;;;;;;;;;
"RGN078";"1987";;"Windows 7";"Rachel's Experiment (SCIAT)";"1.0";"1";"1";"1";"1";"3";"3";"2014-09-09 23:00:03.474";"2014-09-09 23:12:46.377";"1";;;;;;;"1";"1";"0";;;"0";"28";"27";"module.training_block1.exec-9036.GoNoGo1";"1249";"2014-09-09 23:02:38.692";"NST_correctLoc";"14";"0";"FINISHED";"LEFT";"success";"372";"0";"2014-09-09 23:02:37.442";"2";;;;;;;;;;;;;;;;;;;;;;;;;;;;;;;;;;;;;;;;;;;;;;;;;;;;;;;;;;;;;;;;;;;;;;;;;;;;;
"RGN078";"1987";;"Windows 7";"Rachel's Experiment (SCIAT)";"1.0";"1";"1";"1";"1";"3";"3";"2014-09-09 23:00:03.474";"2014-09-09 23:12:46.377";"1";;;;;;;"1";"1";"0";;;"0";"29";"28";"module.training_block1.exec-9036.GoNoGo1";"1249";"2014-09-09 23:02:41.248";"NST_correctLoc";"1";"0";"FINISHED";"LEFT";"success";"460";"0";"2014-09-09 23:02:39.998";"1";;;;;;;;;;;;;;;;;;;;;;;;;;;;;;;;;;;;;;;;;;;;;;;;;;;;;;;;;;;;;;;;;;;;;;;;;;;;;
"RGN078";"1987";;"Windows 7";"Rachel's Experiment (SCIAT)";"1.0";"1";"1";"1";"1";"3";"3";"2014-09-09 23:00:03.474";"2014-09-09 23:12:46.377";"1";;;;;;;"1";"1";"0";;;"0";"30";"29";"module.training_block1.exec-9036.GoNoGo1";"1249";"2014-09-09 23:02:43.795";"NST_correctLoc";"26";"0";"FINISHED";"LEFT";"success";"365";"0";"2014-09-09 23:02:42.545";"3";;;;;;;;;;;;;;;;;;;;;;;;;;;;;;;;;;;;;;;;;;;;;;;;;;;;;;;;;;;;;;;;;;;;;;;;;;;;;
"RGN078";"1987";;"Windows 7";"Rachel's Experiment (SCIAT)";"1.0";"1";"1";"1";"1";"3";"3";"2014-09-09 23:00:03.474";"2014-09-09 23:12:46.377";"1";;;;;;;"1";"1";"0";;;"0";"31";"30";"module.training_block1.exec-9036.GoNoGo1";"1249";"2014-09-09 23:02:46.343";"NST_correctLoc";"22";"0";"FINISHED";"LEFT";"success";"342";"0";"2014-09-09 23:02:45.092";"3";;;;;;;;;;;;;;;;;;;;;;;;;;;;;;;;;;;;;;;;;;;;;;;;;;;;;;;;;;;;;;;;;;;;;;;;;;;;;
"RGN078";"1987";;"Windows 7";"Rachel's Experiment (SCIAT)";"1.0";"1";"1";"1";"1";"3";"3";"2014-09-09 23:00:03.474";"2014-09-09 23:12:46.377";"1";;;;;;;"1";"1";"0";;;"0";"32";"31";"module.training_block1.exec-9036.GoNoGo1";"1249";"2014-09-09 23:02:48.890";"NST_correctLoc";"23";"1";"FINISHED";"RIGHT";"success";"303";"0";"2014-09-09 23:02:47.640";"3";;;;;;;;;;;;;;;;;;;;;;;;;;;;;;;;;;;;;;;;;;;;;;;;;;;;;;;;;;;;;;;;;;;;;;;;;;;;;
"RGN078";"1987";;"Windows 7";"Rachel's Experiment (SCIAT)";"1.0";"1";"1";"1";"1";"3";"3";"2014-09-09 23:00:03.474";"2014-09-09 23:12:46.377";"1";;;;;;;"1";"1";"0";;;"0";"33";"32";"module.training_block1.exec-9036.GoNoGo1";"1249";"2014-09-09 23:02:51.446";"NST_correctLoc";"21";"0";"FINISHED";"LEFT";"success";"310";"0";"2014-09-09 23:02:50.196";"3";;;;;;;;;;;;;;;;;;;;;;;;;;;;;;;;;;;;;;;;;;;;;;;;;;;;;;;;;;;;;;;;;;;;;;;;;;;;;
"RGN078";"1987";;"Windows 7";"Rachel's Experiment (SCIAT)";"1.0";"1";"1";"1";"1";"3";"3";"2014-09-09 23:00:03.474";"2014-09-09 23:12:46.377";"1";;;;;;;"1";"1";"0";;;"0";"34";"33";"module.training_block1.exec-9036.GoNoGo1";"1249";"2014-09-09 23:02:53.991";"NST_correctLoc";"30";"1";"FINISHED";"RIGHT";"success";"305";"0";"2014-09-09 23:02:52.741";"3";;;;;;;;;;;;;;;;;;;;;;;;;;;;;;;;;;;;;;;;;;;;;;;;;;;;;;;;;;;;;;;;;;;;;;;;;;;;;
"RGN078";"1987";;"Windows 7";"Rachel's Experiment (SCIAT)";"1.0";"1";"1";"1";"1";"3";"3";"2014-09-09 23:00:03.474";"2014-09-09 23:12:46.377";"1";;;;;;;"1";"1";"0";;;"0";"35";"34";"module.training_block1.exec-9036.GoNoGo1";"1249";"2014-09-09 23:02:56.541";"NST_correctLoc";"31";"0";"FINISHED";"LEFT";"success";"541";"0";"2014-09-09 23:02:55.291";"3";;;;;;;;;;;;;;;;;;;;;;;;;;;;;;;;;;;;;;;;;;;;;;;;;;;;;;;;;;;;;;;;;;;;;;;;;;;;;
"RGN078";"1987";;"Windows 7";"Rachel's Experiment (SCIAT)";"1.0";"1";"1";"1";"1";"3";"3";"2014-09-09 23:00:03.474";"2014-09-09 23:12:46.377";"1";;;;;;;"1";"1";"0";;;"0";"36";"35";"module.training_block1.exec-9036.GoNoGo1";"1250";"2014-09-09 23:02:59.087";"NST_correctLoc";"2";"1";"FINISHED";"RIGHT";"success";"448";"0";"2014-09-09 23:02:57.837";"1";;;;;;;;;;;;;;;;;;;;;;;;;;;;;;;;;;;;;;;;;;;;;;;;;;;;;;;;;;;;;;;;;;;;;;;;;;;;;
"RGN078";"1987";;"Windows 7";"Rachel's Experiment (SCIAT)";"1.0";"1";"1";"1";"1";"3";"3";"2014-09-09 23:00:03.474";"2014-09-09 23:12:46.377";"1";;;;;;;"1";"1";"0";;;"0";"37";"36";"module.training_block1.exec-9036.GoNoGo1";"1249";"2014-09-09 23:03:01.633";"NST_correctLoc";"9";"1";"FINISHED";"RIGHT";"success";"529";"0";"2014-09-09 23:03:00.383";"2";;;;;;;;;;;;;;;;;;;;;;;;;;;;;;;;;;;;;;;;;;;;;;;;;;;;;;;;;;;;;;;;;;;;;;;;;;;;;
"RGN078";"1987";;"Windows 7";"Rachel's Experiment (SCIAT)";"1.0";"1";"1";"1";"1";"3";"3";"2014-09-09 23:00:03.474";"2014-09-09 23:12:46.377";"1";;;;;;;"1";"1";"0";;;"0";"38";"37";"module.training_block1.exec-9036.GoNoGo1";"1249";"2014-09-09 23:03:04.176";"NST_correctLoc";"28";"0";"FINISHED";"LEFT";"success";"382";"0";"2014-09-09 23:03:02.925";"3";;;;;;;;;;;;;;;;;;;;;;;;;;;;;;;;;;;;;;;;;;;;;;;;;;;;;;;;;;;;;;;;;;;;;;;;;;;;;
"RGN078";"1987";;"Windows 7";"Rachel's Experiment (SCIAT)";"1.0";"1";"1";"1";"1";"3";"3";"2014-09-09 23:00:03.474";"2014-09-09 23:12:46.377";"1";;;;;;;"1";"1";"0";;;"0";"39";"38";"module.training_block1.exec-9036.GoNoGo1";"1249";"2014-09-09 23:03:06.720";"NST_correctLoc";"6";"0";"FINISHED";"LEFT";"success";"370";"0";"2014-09-09 23:03:05.470";"1";;;;;;;;;;;;;;;;;;;;;;;;;;;;;;;;;;;;;;;;;;;;;;;;;;;;;;;;;;;;;;;;;;;;;;;;;;;;;
"RGN078";"1987";;"Windows 7";"Rachel's Experiment (SCIAT)";"1.0";"1";"1";"1";"1";"3";"3";"2014-09-09 23:00:03.474";"2014-09-09 23:12:46.377";"1";;;;;;;"1";"1";"0";;;"0";"40";"39";"module.training_block1.exec-9036.GoNoGo1";"1249";"2014-09-09 23:03:09.265";"NST_correctLoc";"32";"0";"FINISHED";"LEFT";"success";"380";"0";"2014-09-09 23:03:08.015";"3";;;;;;;;;;;;;;;;;;;;;;;;;;;;;;;;;;;;;;;;;;;;;;;;;;;;;;;;;;;;;;;;;;;;;;;;;;;;;
"RGN078";"1987";;"Windows 7";"Rachel's Experiment (SCIAT)";"1.0";"1";"1";"1";"1";"3";"3";"2014-09-09 23:00:03.474";"2014-09-09 23:12:46.377";"1";;;;;;;"1";"1";"0";;;"0";"41";"40";"module.training_block1.exec-9036.GoNoGo1";"1249";"2014-09-09 23:03:11.846";"NST_correctLoc";"16";"0";"FINISHED";"LEFT";"success";"443";"0";"2014-09-09 23:03:10.596";"2";;;;;;;;;;;;;;;;;;;;;;;;;;;;;;;;;;;;;;;;;;;;;;;;;;;;;;;;;;;;;;;;;;;;;;;;;;;;;
"RGN078";"1987";;"Windows 7";"Rachel's Experiment (SCIAT)";"1.0";"1";"1";"1";"1";"3";"3";"2014-09-09 23:00:03.474";"2014-09-09 23:12:46.377";"1";;;;;;;"1";"1";"0";;;"0";"42";"41";"module.training_block1.exec-9036.GoNoGo1";"1249";"2014-09-09 23:03:14.393";"NST_correctLoc";"10";"1";"FINISHED";"RIGHT";"success";"324";"0";"2014-09-09 23:03:13.143";"2";;;;;;;;;;;;;;;;;;;;;;;;;;;;;;;;;;;;;;;;;;;;;;;;;;;;;;;;;;;;;;;;;;;;;;;;;;;;;
"RGN078";"1987";;"Windows 7";"Rachel's Experiment (SCIAT)";"1.0";"1";"1";"1";"1";"3";"3";"2014-09-09 23:00:03.474";"2014-09-09 23:12:46.377";"1";;;;;;;"1";"1";"0";;;"0";"43";"42";"module.training_block1.exec-9036.GoNoGo1";"1250";"2014-09-09 23:03:16.965";"NST_correctLoc";"5";"1";"FINISHED";"RIGHT";"success";"324";"0";"2014-09-09 23:03:15.714";"1";;;;;;;;;;;;;;;;;;;;;;;;;;;;;;;;;;;;;;;;;;;;;;;;;;;;;;;;;;;;;;;;;;;;;;;;;;;;;
"RGN078";"1987";;"Windows 7";"Rachel's Experiment (SCIAT)";"1.0";"1";"1";"1";"1";"3";"3";"2014-09-09 23:00:03.474";"2014-09-09 23:12:46.377";"1";;;;;;;"1";"1";"0";;;"0";"44";"43";"module.training_block1.exec-9036.GoNoGo1";"1249";"2014-09-09 23:03:19.524";"NST_correctLoc";"11";"1";"FINISHED";"RIGHT";"success";"376";"0";"2014-09-09 23:03:18.274";"2";;;;;;;;;;;;;;;;;;;;;;;;;;;;;;;;;;;;;;;;;;;;;;;;;;;;;;;;;;;;;;;;;;;;;;;;;;;;;
"RGN078";"1987";;"Windows 7";"Rachel's Experiment (SCIAT)";"1.0";"1";"1";"1";"1";"3";"3";"2014-09-09 23:00:03.474";"2014-09-09 23:12:46.377";"1";;;;;;;"1";"1";"0";;;"0";"45";"44";"module.training_block1.exec-9036.GoNoGo1";"1250";"2014-09-09 23:03:22.105";"NST_correctLoc";"15";"0";"FINISHED";"LEFT";"success";"335";"0";"2014-09-09 23:03:20.854";"2";;;;;;;;;;;;;;;;;;;;;;;;;;;;;;;;;;;;;;;;;;;;;;;;;;;;;;;;;;;;;;;;;;;;;;;;;;;;;
"RGN078";"1987";;"Windows 7";"Rachel's Experiment (SCIAT)";"1.0";"1";"1";"1";"1";"3";"3";"2014-09-09 23:00:03.474";"2014-09-09 23:12:46.377";"1";;;;;;;"1";"1";"0";;;"0";"46";"45";"module.training_block1.exec-9036.GoNoGo1";"1249";"2014-09-09 23:03:24.658";"NST_correctLoc";"13";"1";"FINISHED";"RIGHT";"success";"322";"0";"2014-09-09 23:03:23.408";"2";;;;;;;;;;;;;;;;;;;;;;;;;;;;;;;;;;;;;;;;;;;;;;;;;;;;;;;;;;;;;;;;;;;;;;;;;;;;;
"RGN078";"1987";;"Windows 7";"Rachel's Experiment (SCIAT)";"1.0";"1";"1";"1";"1";"3";"3";"2014-09-09 23:00:03.474";"2014-09-09 23:12:46.377";"1";;;;;;;"1";"1";"0";;;"0";"47";"46";"module.training_block1.exec-9036.GoNoGo1";"1249";"2014-09-09 23:03:27.205";"NST_correctLoc";"18";"0";"FINISHED";"LEFT";"success";"338";"0";"2014-09-09 23:03:25.955";"3";;;;;;;;;;;;;;;;;;;;;;;;;;;;;;;;;;;;;;;;;;;;;;;;;;;;;;;;;;;;;;;;;;;;;;;;;;;;;
"RGN078";"1987";;"Windows 7";"Rachel's Experiment (SCIAT)";"1.0";"1";"1";"1";"1";"3";"3";"2014-09-09 23:00:03.474";"2014-09-09 23:12:46.377";"1";;;;;;;"1";"1";"0";;;"0";"48";"47";"module.training_block1.exec-9036.GoNoGo1";"1249";"2014-09-09 23:03:29.782";"NST_correctLoc";"20";"1";"FINISHED";"RIGHT";"success";"397";"0";"2014-09-09 23:03:28.532";"3";;;;;;;;;;;;;;;;;;;;;;;;;;;;;;;;;;;;;;;;;;;;;;;;;;;;;;;;;;;;;;;;;;;;;;;;;;;;;
"RGN078";"1987";;"Windows 7";"Rachel's Experiment (SCIAT)";"1.0";"1";"1";"1";"1";"3";"3";"2014-09-09 23:00:03.474";"2014-09-09 23:12:46.377";"1";;;;;;;"1";"1";"0";;;"0";"49";"48";"module.training_block1.exec-9036.GoNoGo1";"1250";"2014-09-09 23:03:32.326";"NST_correctLoc";"25";"1";"FINISHED";"RIGHT";"success";"329";"0";"2014-09-09 23:03:31.076";"3";;;;;;;;;;;;;;;;;;;;;;;;;;;;;;;;;;;;;;;;;;;;;;;;;;;;;;;;;;;;;;;;;;;;;;;;;;;;;
"RGN078";"1987";;"Windows 7";"Rachel's Experiment (SCIAT)";"1.0";"1";"1";"1";"1";"3";"3";"2014-09-09 23:00:03.474";"2014-09-09 23:12:46.377";"1";;;;;;;"1";"1";"0";;;"0";"50";"49";"module.training_block1.exec-9036.GoNoGo1";"1249";"2014-09-09 23:03:34.869";"NST_correctLoc";"33";"0";"FINISHED";"LEFT";"success";"284";"0";"2014-09-09 23:03:33.619";"3";;;;;;;;;;;;;;;;;;;;;;;;;;;;;;;;;;;;;;;;;;;;;;;;;;;;;;;;;;;;;;;;;;;;;;;;;;;;;
"RGN078";"1987";;"Windows 7";"Rachel's Experiment (SCIAT)";"1.0";"1";"1";"1";"1";"3";"3";"2014-09-09 23:00:03.474";"2014-09-09 23:12:46.377";"1";;;;;;;"1";"1";"0";;;"0";"51";"50";"module.training_block1.exec-9036.GoNoGo1";"1249";"2014-09-09 23:03:37.413";"NST_correctLoc";"12";"1";"FINISHED";"RIGHT";"success";"273";"0";"2014-09-09 23:03:36.163";"2";;;;;;;;;;;;;;;;;;;;;;;;;;;;;;;;;;;;;;;;;;;;;;;;;;;;;;;;;;;;;;;;;;;;;;;;;;;;;
"RGN078";"1987";;"Windows 7";"Rachel's Experiment (SCIAT)";"1.0";"1";"1";"1";"1";"3";"3";"2014-09-09 23:00:03.474";"2014-09-09 23:12:46.377";"1";;;;;;;"1";"1";"0";;;"0";"52";"51";"module.training_block2.exec-9730.GoNoGo2";;;;;;;;;;;;;"1250";"2014-09-09 23:03:48.538";"NST_correctLoc";"13";"1";"FINISHED";"RIGHT";"success";"350";"0";"2014-09-09 23:03:47.288";"2";;;;;;;;;;;;;;;;;;;;;;;;;;;;;;;;;;;;;;;;;;;;;;;;;;;;;;;;;;;;;;;;;
"RGN078";"1987";;"Windows 7";"Rachel's Experiment (SCIAT)";"1.0";"1";"1";"1";"1";"3";"3";"2014-09-09 23:00:03.474";"2014-09-09 23:12:46.377";"1";;;;;;;"1";"1";"0";;;"0";"53";"52";"module.training_block2.exec-9730.GoNoGo2";;;;;;;;;;;;;"1250";"2014-09-09 23:03:51.076";"NST_correctLoc";"1";"1";"FINISHED";"RIGHT";"success";"304";"0";"2014-09-09 23:03:49.826";"1";;;;;;;;;;;;;;;;;;;;;;;;;;;;;;;;;;;;;;;;;;;;;;;;;;;;;;;;;;;;;;;;;
"RGN078";"1987";;"Windows 7";"Rachel's Experiment (SCIAT)";"1.0";"1";"1";"1";"1";"3";"3";"2014-09-09 23:00:03.474";"2014-09-09 23:12:46.377";"1";;;;;;;"1";"1";"0";;;"0";"54";"53";"module.training_block2.exec-9730.GoNoGo2";;;;;;;;;;;;;"1249";"2014-09-09 23:03:53.613";"NST_correctLoc";"3";"1";"FINISHED";"RIGHT";"success";"337";"0";"2014-09-09 23:03:52.363";"1";;;;;;;;;;;;;;;;;;;;;;;;;;;;;;;;;;;;;;;;;;;;;;;;;;;;;;;;;;;;;;;;;
"RGN078";"1987";;"Windows 7";"Rachel's Experiment (SCIAT)";"1.0";"1";"1";"1";"1";"3";"3";"2014-09-09 23:00:03.474";"2014-09-09 23:12:46.377";"1";;;;;;;"1";"1";"0";;;"0";"55";"54";"module.training_block2.exec-9730.GoNoGo2";;;;;;;;;;;;;"1250";"2014-09-09 23:03:56.153";"NST_correctLoc";"9";"0";"FINISHED";"LEFT";"success";"370";"0";"2014-09-09 23:03:54.902";"2";;;;;;;;;;;;;;;;;;;;;;;;;;;;;;;;;;;;;;;;;;;;;;;;;;;;;;;;;;;;;;;;;
"RGN078";"1987";;"Windows 7";"Rachel's Experiment (SCIAT)";"1.0";"1";"1";"1";"1";"3";"3";"2014-09-09 23:00:03.474";"2014-09-09 23:12:46.377";"1";;;;;;;"1";"1";"0";;;"0";"56";"55";"module.training_block2.exec-9730.GoNoGo2";;;;;;;;;;;;;"1250";"2014-09-09 23:03:58.690";"NST_correctLoc";"25";"0";"FINISHED";"LEFT";"success";"404";"0";"2014-09-09 23:03:57.440";"3";;;;;;;;;;;;;;;;;;;;;;;;;;;;;;;;;;;;;;;;;;;;;;;;;;;;;;;;;;;;;;;;;
"RGN078";"1987";;"Windows 7";"Rachel's Experiment (SCIAT)";"1.0";"1";"1";"1";"1";"3";"3";"2014-09-09 23:00:03.474";"2014-09-09 23:12:46.377";"1";;;;;;;"1";"1";"0";;;"0";"57";"56";"module.training_block2.exec-9730.GoNoGo2";;;;;;;;;;;;;"1250";"2014-09-09 23:04:01.227";"NST_correctLoc";"10";"0";"FINISHED";"LEFT";"success";"375";"0";"2014-09-09 23:03:59.977";"2";;;;;;;;;;;;;;;;;;;;;;;;;;;;;;;;;;;;;;;;;;;;;;;;;;;;;;;;;;;;;;;;;
"RGN078";"1987";;"Windows 7";"Rachel's Experiment (SCIAT)";"1.0";"1";"1";"1";"1";"3";"3";"2014-09-09 23:00:03.474";"2014-09-09 23:12:46.377";"1";;;;;;;"1";"1";"0";;;"0";"58";"57";"module.training_block2.exec-9730.GoNoGo2";;;;;;;;;;;;;"1250";"2014-09-09 23:04:03.765";"NST_correctLoc";"15";"0";"FINISHED";"LEFT";"success";"417";"0";"2014-09-09 23:04:02.515";"2";;;;;;;;;;;;;;;;;;;;;;;;;;;;;;;;;;;;;;;;;;;;;;;;;;;;;;;;;;;;;;;;;
"RGN078";"1987";;"Windows 7";"Rachel's Experiment (SCIAT)";"1.0";"1";"1";"1";"1";"3";"3";"2014-09-09 23:00:03.474";"2014-09-09 23:12:46.377";"1";;;;;;;"1";"1";"0";;;"0";"59";"58";"module.training_block2.exec-9730.GoNoGo2";;;;;;;;;;;;;"1250";"2014-09-09 23:04:06.301";"NST_correctLoc";"20";"1";"FINISHED";"RIGHT";"success";"277";"0";"2014-09-09 23:04:05.051";"3";;;;;;;;;;;;;;;;;;;;;;;;;;;;;;;;;;;;;;;;;;;;;;;;;;;;;;;;;;;;;;;;;
"RGN078";"1987";;"Windows 7";"Rachel's Experiment (SCIAT)";"1.0";"1";"1";"1";"1";"3";"3";"2014-09-09 23:00:03.474";"2014-09-09 23:12:46.377";"1";;;;;;;"1";"1";"0";;;"0";"60";"59";"module.training_block2.exec-9730.GoNoGo2";;;;;;;;;;;;;"1250";"2014-09-09 23:04:08.837";"NST_correctLoc";"24";"1";"FINISHED";"RIGHT";"success";"416";"0";"2014-09-09 23:04:07.587";"3";;;;;;;;;;;;;;;;;;;;;;;;;;;;;;;;;;;;;;;;;;;;;;;;;;;;;;;;;;;;;;;;;
"RGN078";"1987";;"Windows 7";"Rachel's Experiment (SCIAT)";"1.0";"1";"1";"1";"1";"3";"3";"2014-09-09 23:00:03.474";"2014-09-09 23:12:46.377";"1";;;;;;;"1";"1";"0";;;"0";"61";"60";"module.training_block2.exec-9730.GoNoGo2";;;;;;;;;;;;;"1250";"2014-09-09 23:04:11.372";"NST_correctLoc";"18";"0";"FINISHED";"LEFT";"success";"412";"0";"2014-09-09 23:04:10.122";"3";;;;;;;;;;;;;;;;;;;;;;;;;;;;;;;;;;;;;;;;;;;;;;;;;;;;;;;;;;;;;;;;;
"RGN078";"1987";;"Windows 7";"Rachel's Experiment (SCIAT)";"1.0";"1";"1";"1";"1";"3";"3";"2014-09-09 23:00:03.474";"2014-09-09 23:12:46.377";"1";;;;;;;"1";"1";"0";;;"0";"62";"61";"module.training_block2.exec-9730.GoNoGo2";;;;;;;;;;;;;"1250";"2014-09-09 23:04:13.916";"NST_correctLoc";"26";"0";"FINISHED";"LEFT";"success";"401";"0";"2014-09-09 23:04:12.665";"3";;;;;;;;;;;;;;;;;;;;;;;;;;;;;;;;;;;;;;;;;;;;;;;;;;;;;;;;;;;;;;;;;
"RGN078";"1987";;"Windows 7";"Rachel's Experiment (SCIAT)";"1.0";"1";"1";"1";"1";"3";"3";"2014-09-09 23:00:03.474";"2014-09-09 23:12:46.377";"1";;;;;;;"1";"1";"0";;;"0";"63";"62";"module.training_block2.exec-9730.GoNoGo2";;;;;;;;;;;;;"1249";"2014-09-09 23:04:16.450";"NST_correctLoc";"2";"1";"FINISHED";"RIGHT";"success";"366";"0";"2014-09-09 23:04:15.200";"1";;;;;;;;;;;;;;;;;;;;;;;;;;;;;;;;;;;;;;;;;;;;;;;;;;;;;;;;;;;;;;;;;
"RGN078";"1987";;"Windows 7";"Rachel's Experiment (SCIAT)";"1.0";"1";"1";"1";"1";"3";"3";"2014-09-09 23:00:03.474";"2014-09-09 23:12:46.377";"1";;;;;;;"1";"1";"0";;;"0";"64";"63";"module.training_block2.exec-9730.GoNoGo2";;;;;;;;;;;;;"1250";"2014-09-09 23:04:18.983";"NST_correctLoc";"27";"1";"FINISHED";"RIGHT";"success";"326";"0";"2014-09-09 23:04:17.733";"3";;;;;;;;;;;;;;;;;;;;;;;;;;;;;;;;;;;;;;;;;;;;;;;;;;;;;;;;;;;;;;;;;
"RGN078";"1987";;"Windows 7";"Rachel's Experiment (SCIAT)";"1.0";"1";"1";"1";"1";"3";"3";"2014-09-09 23:00:03.474";"2014-09-09 23:12:46.377";"1";;;;;;;"1";"1";"0";;;"0";"65";"64";"module.training_block2.exec-9730.GoNoGo2";;;;;;;;;;;;;"1249";"2014-09-09 23:04:21.525";"NST_correctLoc";"4";"1";"FINISHED";"RIGHT";"success";"307";"0";"2014-09-09 23:04:20.275";"1";;;;;;;;;;;;;;;;;;;;;;;;;;;;;;;;;;;;;;;;;;;;;;;;;;;;;;;;;;;;;;;;;
"RGN078";"1987";;"Windows 7";"Rachel's Experiment (SCIAT)";"1.0";"1";"1";"1";"1";"3";"3";"2014-09-09 23:00:03.474";"2014-09-09 23:12:46.377";"1";;;;;;;"1";"1";"0";;;"0";"66";"65";"module.training_block2.exec-9730.GoNoGo2";;;;;;;;;;;;;"1250";"2014-09-09 23:04:24.056";"NST_correctLoc";"8";"0";"FINISHED";"LEFT";"success";"706";"0";"2014-09-09 23:04:22.806";"1";;;;;;;;;;;;;;;;;;;;;;;;;;;;;;;;;;;;;;;;;;;;;;;;;;;;;;;;;;;;;;;;;
"RGN078";"1987";;"Windows 7";"Rachel's Experiment (SCIAT)";"1.0";"1";"1";"1";"1";"3";"3";"2014-09-09 23:00:03.474";"2014-09-09 23:12:46.377";"1";;;;;;;"1";"1";"0";;;"0";"67";"66";"module.training_block2.exec-9730.GoNoGo2";;;;;;;;;;;;;"1249";"2014-09-09 23:04:26.592";"NST_correctLoc";"17";"0";"FINISHED";"LEFT";"success";"422";"0";"2014-09-09 23:04:25.342";"2";;;;;;;;;;;;;;;;;;;;;;;;;;;;;;;;;;;;;;;;;;;;;;;;;;;;;;;;;;;;;;;;;
"RGN078";"1987";;"Windows 7";"Rachel's Experiment (SCIAT)";"1.0";"1";"1";"1";"1";"3";"3";"2014-09-09 23:00:03.474";"2014-09-09 23:12:46.377";"1";;;;;;;"1";"1";"0";;;"0";"68";"67";"module.training_block2.exec-9730.GoNoGo2";;;;;;;;;;;;;"1250";"2014-09-09 23:04:29.126";"NST_correctLoc";"0";"1";"FINISHED";"RIGHT";"success";"277";"0";"2014-09-09 23:04:27.876";"1";;;;;;;;;;;;;;;;;;;;;;;;;;;;;;;;;;;;;;;;;;;;;;;;;;;;;;;;;;;;;;;;;
"RGN078";"1987";;"Windows 7";"Rachel's Experiment (SCIAT)";"1.0";"1";"1";"1";"1";"3";"3";"2014-09-09 23:00:03.474";"2014-09-09 23:12:46.377";"1";;;;;;;"1";"1";"0";;;"0";"69";"68";"module.training_block2.exec-9730.GoNoGo2";;;;;;;;;;;;;"1249";"2014-09-09 23:04:31.660";"NST_correctLoc";"32";"0";"FINISHED";"LEFT";"success";"434";"0";"2014-09-09 23:04:30.409";"3";;;;;;;;;;;;;;;;;;;;;;;;;;;;;;;;;;;;;;;;;;;;;;;;;;;;;;;;;;;;;;;;;
"RGN078";"1987";;"Windows 7";"Rachel's Experiment (SCIAT)";"1.0";"1";"1";"1";"1";"3";"3";"2014-09-09 23:00:03.474";"2014-09-09 23:12:46.377";"1";;;;;;;"1";"1";"0";;;"0";"70";"69";"module.training_block2.exec-9730.GoNoGo2";;;;;;;;;;;;;"1250";"2014-09-09 23:04:34.191";"NST_correctLoc";"21";"0";"FINISHED";"LEFT";"success";"387";"0";"2014-09-09 23:04:32.941";"3";;;;;;;;;;;;;;;;;;;;;;;;;;;;;;;;;;;;;;;;;;;;;;;;;;;;;;;;;;;;;;;;;
"RGN078";"1987";;"Windows 7";"Rachel's Experiment (SCIAT)";"1.0";"1";"1";"1";"1";"3";"3";"2014-09-09 23:00:03.474";"2014-09-09 23:12:46.377";"1";;;;;;;"1";"1";"0";;;"0";"71";"70";"module.training_block2.exec-9730.GoNoGo2";;;;;;;;;;;;;"1249";"2014-09-09 23:04:36.724";"NST_correctLoc";"5";"1";"FINISHED";"RIGHT";"success";"274";"0";"2014-09-09 23:04:35.474";"1";;;;;;;;;;;;;;;;;;;;;;;;;;;;;;;;;;;;;;;;;;;;;;;;;;;;;;;;;;;;;;;;;
"RGN078";"1987";;"Windows 7";"Rachel's Experiment (SCIAT)";"1.0";"1";"1";"1";"1";"3";"3";"2014-09-09 23:00:03.474";"2014-09-09 23:12:46.377";"1";;;;;;;"1";"1";"0";;;"0";"72";"71";"module.training_block2.exec-9730.GoNoGo2";;;;;;;;;;;;;"1249";"2014-09-09 23:04:39.257";"NST_correctLoc";"6";"1";"FINISHED";"RIGHT";"success";"304";"0";"2014-09-09 23:04:38.007";"1";;;;;;;;;;;;;;;;;;;;;;;;;;;;;;;;;;;;;;;;;;;;;;;;;;;;;;;;;;;;;;;;;
"RGN078";"1987";;"Windows 7";"Rachel's Experiment (SCIAT)";"1.0";"1";"1";"1";"1";"3";"3";"2014-09-09 23:00:03.474";"2014-09-09 23:12:46.377";"1";;;;;;;"1";"1";"0";;;"0";"73";"72";"module.training_block2.exec-9730.GoNoGo2";;;;;;;;;;;;;"1249";"2014-09-09 23:04:41.787";"NST_correctLoc";"33";"0";"FINISHED";"LEFT";"success";"320";"0";"2014-09-09 23:04:40.537";"3";;;;;;;;;;;;;;;;;;;;;;;;;;;;;;;;;;;;;;;;;;;;;;;;;;;;;;;;;;;;;;;;;
"RGN078";"1987";;"Windows 7";"Rachel's Experiment (SCIAT)";"1.0";"1";"1";"1";"1";"3";"3";"2014-09-09 23:00:03.474";"2014-09-09 23:12:46.377";"1";;;;;;;"1";"1";"0";;;"0";"74";"73";"module.training_block2.exec-9730.GoNoGo2";;;;;;;;;;;;;"1249";"2014-09-09 23:04:44.320";"NST_correctLoc";"31";"0";"FINISHED";"LEFT";"success";"376";"0";"2014-09-09 23:04:43.070";"3";;;;;;;;;;;;;;;;;;;;;;;;;;;;;;;;;;;;;;;;;;;;;;;;;;;;;;;;;;;;;;;;;
"RGN078";"1987";;"Windows 7";"Rachel's Experiment (SCIAT)";"1.0";"1";"1";"1";"1";"3";"3";"2014-09-09 23:00:03.474";"2014-09-09 23:12:46.377";"1";;;;;;;"1";"1";"0";;;"0";"75";"74";"module.training_block2.exec-9730.GoNoGo2";;;;;;;;;;;;;"1250";"2014-09-09 23:04:46.852";"NST_correctLoc";"35";"1";"FINISHED";"RIGHT";"success";"273";"0";"2014-09-09 23:04:45.602";"3";;;;;;;;;;;;;;;;;;;;;;;;;;;;;;;;;;;;;;;;;;;;;;;;;;;;;;;;;;;;;;;;;
"RGN078";"1987";;"Windows 7";"Rachel's Experiment (SCIAT)";"1.0";"1";"1";"1";"1";"3";"3";"2014-09-09 23:00:03.474";"2014-09-09 23:12:46.377";"1";;;;;;;"1";"1";"0";;;"0";"76";"75";"module.training_block2.exec-9730.GoNoGo2";;;;;;;;;;;;;"1250";"2014-09-09 23:04:49.394";"NST_correctLoc";"34";"1";"FINISHED";"RIGHT";"success";"303";"0";"2014-09-09 23:04:48.143";"3";;;;;;;;;;;;;;;;;;;;;;;;;;;;;;;;;;;;;;;;;;;;;;;;;;;;;;;;;;;;;;;;;
"RGN078";"1987";;"Windows 7";"Rachel's Experiment (SCIAT)";"1.0";"1";"1";"1";"1";"3";"3";"2014-09-09 23:00:03.474";"2014-09-09 23:12:46.377";"1";;;;;;;"1";"1";"0";;;"0";"77";"76";"module.training_block2.exec-9730.GoNoGo2";;;;;;;;;;;;;"1250";"2014-09-09 23:04:51.926";"NST_correctLoc";"16";"0";"FINISHED";"LEFT";"success";"429";"0";"2014-09-09 23:04:50.676";"2";;;;;;;;;;;;;;;;;;;;;;;;;;;;;;;;;;;;;;;;;;;;;;;;;;;;;;;;;;;;;;;;;
"RGN078";"1987";;"Windows 7";"Rachel's Experiment (SCIAT)";"1.0";"1";"1";"1";"1";"3";"3";"2014-09-09 23:00:03.474";"2014-09-09 23:12:46.377";"1";;;;;;;"1";"1";"0";;;"0";"78";"77";"module.training_block2.exec-9730.GoNoGo2";;;;;;;;;;;;;"1249";"2014-09-09 23:04:54.457";"NST_correctLoc";"30";"0";"FINISHED";"LEFT";"success";"350";"0";"2014-09-09 23:04:53.207";"3";;;;;;;;;;;;;;;;;;;;;;;;;;;;;;;;;;;;;;;;;;;;;;;;;;;;;;;;;;;;;;;;;
"RGN078";"1987";;"Windows 7";"Rachel's Experiment (SCIAT)";"1.0";"1";"1";"1";"1";"3";"3";"2014-09-09 23:00:03.474";"2014-09-09 23:12:46.377";"1";;;;;;;"1";"1";"0";;;"0";"79";"78";"module.training_block2.exec-9730.GoNoGo2";;;;;;;;;;;;;"1250";"2014-09-09 23:04:56.998";"NST_correctLoc";"29";"1";"FINISHED";"RIGHT";"success";"334";"0";"2014-09-09 23:04:55.748";"3";;;;;;;;;;;;;;;;;;;;;;;;;;;;;;;;;;;;;;;;;;;;;;;;;;;;;;;;;;;;;;;;;
"RGN078";"1987";;"Windows 7";"Rachel's Experiment (SCIAT)";"1.0";"1";"1";"1";"1";"3";"3";"2014-09-09 23:00:03.474";"2014-09-09 23:12:46.377";"1";;;;;;;"1";"1";"0";;;"0";"80";"79";"module.training_block2.exec-9730.GoNoGo2";;;;;;;;;;;;;"1249";"2014-09-09 23:04:59.539";"NST_correctLoc";"7";"1";"FINISHED";"RIGHT";"success";"339";"0";"2014-09-09 23:04:58.289";"1";;;;;;;;;;;;;;;;;;;;;;;;;;;;;;;;;;;;;;;;;;;;;;;;;;;;;;;;;;;;;;;;;
"RGN078";"1987";;"Windows 7";"Rachel's Experiment (SCIAT)";"1.0";"1";"1";"1";"1";"3";"3";"2014-09-09 23:00:03.474";"2014-09-09 23:12:46.377";"1";;;;;;;"1";"1";"0";;;"0";"81";"80";"module.training_block2.exec-9730.GoNoGo2";;;;;;;;;;;;;"1249";"2014-09-09 23:05:02.070";"NST_correctLoc";"22";"0";"FINISHED";"LEFT";"success";"339";"0";"2014-09-09 23:05:00.820";"3";;;;;;;;;;;;;;;;;;;;;;;;;;;;;;;;;;;;;;;;;;;;;;;;;;;;;;;;;;;;;;;;;
"RGN078";"1987";;"Windows 7";"Rachel's Experiment (SCIAT)";"1.0";"1";"1";"1";"1";"3";"3";"2014-09-09 23:00:03.474";"2014-09-09 23:12:46.377";"1";;;;;;;"1";"1";"0";;;"0";"82";"81";"module.training_block2.exec-9730.GoNoGo2";;;;;;;;;;;;;"1249";"2014-09-09 23:05:04.602";"NST_correctLoc";"12";"1";"FINISHED";"RIGHT";"success";"300";"0";"2014-09-09 23:05:03.352";"2";;;;;;;;;;;;;;;;;;;;;;;;;;;;;;;;;;;;;;;;;;;;;;;;;;;;;;;;;;;;;;;;;
"RGN078";"1987";;"Windows 7";"Rachel's Experiment (SCIAT)";"1.0";"1";"1";"1";"1";"3";"3";"2014-09-09 23:00:03.474";"2014-09-09 23:12:46.377";"1";;;;;;;"1";"1";"0";;;"0";"83";"82";"module.training_block2.exec-9730.GoNoGo2";;;;;;;;;;;;;"1249";"2014-09-09 23:05:07.140";"NST_correctLoc";"19";"1";"FINISHED";"RIGHT";"success";"342";"0";"2014-09-09 23:05:05.889";"3";;;;;;;;;;;;;;;;;;;;;;;;;;;;;;;;;;;;;;;;;;;;;;;;;;;;;;;;;;;;;;;;;
"RGN078";"1987";;"Windows 7";"Rachel's Experiment (SCIAT)";"1.0";"1";"1";"1";"1";"3";"3";"2014-09-09 23:00:03.474";"2014-09-09 23:12:46.377";"1";;;;;;;"1";"1";"0";;;"0";"84";"83";"module.training_block2.exec-9730.GoNoGo2";;;;;;;;;;;;;"1250";"2014-09-09 23:05:09.673";"NST_correctLoc";"23";"0";"FINISHED";"LEFT";"success";"476";"0";"2014-09-09 23:05:08.423";"3";;;;;;;;;;;;;;;;;;;;;;;;;;;;;;;;;;;;;;;;;;;;;;;;;;;;;;;;;;;;;;;;;
"RGN078";"1987";;"Windows 7";"Rachel's Experiment (SCIAT)";"1.0";"1";"1";"1";"1";"3";"3";"2014-09-09 23:00:03.474";"2014-09-09 23:12:46.377";"1";;;;;;;"1";"1";"0";;;"0";"85";"84";"module.training_block2.exec-9730.GoNoGo2";;;;;;;;;;;;;"1250";"2014-09-09 23:05:12.204";"NST_correctLoc";"14";"1";"FINISHED";"RIGHT";"success";"262";"0";"2014-09-09 23:05:10.954";"2";;;;;;;;;;;;;;;;;;;;;;;;;;;;;;;;;;;;;;;;;;;;;;;;;;;;;;;;;;;;;;;;;
"RGN078";"1987";;"Windows 7";"Rachel's Experiment (SCIAT)";"1.0";"1";"1";"1";"1";"3";"3";"2014-09-09 23:00:03.474";"2014-09-09 23:12:46.377";"1";;;;;;;"1";"1";"0";;;"0";"86";"85";"module.training_block2.exec-9730.GoNoGo2";;;;;;;;;;;;;"1250";"2014-09-09 23:05:14.737";"NST_correctLoc";"28";"0";"FINISHED";"LEFT";"success";"388";"0";"2014-09-09 23:05:13.487";"3";;;;;;;;;;;;;;;;;;;;;;;;;;;;;;;;;;;;;;;;;;;;;;;;;;;;;;;;;;;;;;;;;
"RGN078";"1987";;"Windows 7";"Rachel's Experiment (SCIAT)";"1.0";"1";"1";"1";"1";"3";"3";"2014-09-09 23:00:03.474";"2014-09-09 23:12:46.377";"1";;;;;;;"1";"1";"0";;;"0";"87";"86";"module.training_block2.exec-9730.GoNoGo2";;;;;;;;;;;;;"1250";"2014-09-09 23:05:17.271";"NST_correctLoc";"11";"1";"FINISHED";"RIGHT";"success";"418";"0";"2014-09-09 23:05:16.021";"2";;;;;;;;;;;;;;;;;;;;;;;;;;;;;;;;;;;;;;;;;;;;;;;;;;;;;;;;;;;;;;;;;
"RGN078";"1987";;"Windows 7";"Rachel's Experiment (SCIAT)";"1.0";"1";"1";"1";"1";"3";"3";"2014-09-09 23:00:03.474";"2014-09-09 23:12:46.377";"1";;;;;;;"1";"1";"0";;;"0";"88";"87";"module.training_block3.exec-7355.GoNoGo3";;;;;;;;;;;;;;;;;;;;;;;;;"1249";"2014-09-09 23:05:28.093";"NST_correctLoc";"2";"1";"FINISHED";"RIGHT";"success";"677";"0";"2014-09-09 23:05:26.843";"1";;;;;;;;;;;;;;;;;;;;;;;;;;;;;;;;;;;;;;;;;;;;;;;;;;;;;
"RGN078";"1987";;"Windows 7";"Rachel's Experiment (SCIAT)";"1.0";"1";"1";"1";"1";"3";"3";"2014-09-09 23:00:03.474";"2014-09-09 23:12:46.377";"1";;;;;;;"1";"1";"0";;;"0";"89";"88";"module.training_block3.exec-7355.GoNoGo3";;;;;;;;;;;;;;;;;;;;;;;;;"1249";"2014-09-09 23:05:30.625";"NST_correctLoc";"26";"0";"FINISHED";"LEFT";"success";"348";"0";"2014-09-09 23:05:29.375";"3";;;;;;;;;;;;;;;;;;;;;;;;;;;;;;;;;;;;;;;;;;;;;;;;;;;;;
"RGN078";"1987";;"Windows 7";"Rachel's Experiment (SCIAT)";"1.0";"1";"1";"1";"1";"3";"3";"2014-09-09 23:00:03.474";"2014-09-09 23:12:46.377";"1";;;;;;;"1";"1";"0";;;"0";"90";"89";"module.training_block3.exec-7355.GoNoGo3";;;;;;;;;;;;;;;;;;;;;;;;;"1249";"2014-09-09 23:05:33.158";"NST_correctLoc";"4";"1";"FINISHED";"RIGHT";"success";"364";"0";"2014-09-09 23:05:31.908";"1";;;;;;;;;;;;;;;;;;;;;;;;;;;;;;;;;;;;;;;;;;;;;;;;;;;;;
"RGN078";"1987";;"Windows 7";"Rachel's Experiment (SCIAT)";"1.0";"1";"1";"1";"1";"3";"3";"2014-09-09 23:00:03.474";"2014-09-09 23:12:46.377";"1";;;;;;;"1";"1";"0";;;"0";"91";"90";"module.training_block3.exec-7355.GoNoGo3";;;;;;;;;;;;;;;;;;;;;;;;;"1249";"2014-09-09 23:05:35.691";"NST_correctLoc";"3";"1";"FINISHED";"RIGHT";"success";"330";"0";"2014-09-09 23:05:34.441";"1";;;;;;;;;;;;;;;;;;;;;;;;;;;;;;;;;;;;;;;;;;;;;;;;;;;;;
"RGN078";"1987";;"Windows 7";"Rachel's Experiment (SCIAT)";"1.0";"1";"1";"1";"1";"3";"3";"2014-09-09 23:00:03.474";"2014-09-09 23:12:46.377";"1";;;;;;;"1";"1";"0";;;"0";"92";"91";"module.training_block3.exec-7355.GoNoGo3";;;;;;;;;;;;;;;;;;;;;;;;;"1249";"2014-09-09 23:05:38.224";"NST_correctLoc";"11";"0";"FINISHED";"LEFT";"success";"392";"0";"2014-09-09 23:05:36.974";"2";;;;;;;;;;;;;;;;;;;;;;;;;;;;;;;;;;;;;;;;;;;;;;;;;;;;;
"RGN078";"1987";;"Windows 7";"Rachel's Experiment (SCIAT)";"1.0";"1";"1";"1";"1";"3";"3";"2014-09-09 23:00:03.474";"2014-09-09 23:12:46.377";"1";;;;;;;"1";"1";"0";;;"0";"93";"92";"module.training_block3.exec-7355.GoNoGo3";;;;;;;;;;;;;;;;;;;;;;;;;"1249";"2014-09-09 23:05:40.753";"NST_correctLoc";"29";"0";"FINISHED";"LEFT";"success";"435";"0";"2014-09-09 23:05:39.503";"3";;;;;;;;;;;;;;;;;;;;;;;;;;;;;;;;;;;;;;;;;;;;;;;;;;;;;
"RGN078";"1987";;"Windows 7";"Rachel's Experiment (SCIAT)";"1.0";"1";"1";"1";"1";"3";"3";"2014-09-09 23:00:03.474";"2014-09-09 23:12:46.377";"1";;;;;;;"1";"1";"0";;;"0";"94";"93";"module.training_block3.exec-7355.GoNoGo3";;;;;;;;;;;;;;;;;;;;;;;;;"1249";"2014-09-09 23:05:43.286";"NST_correctLoc";"10";"1";"FINISHED";"RIGHT";"success";"427";"0";"2014-09-09 23:05:42.036";"2";;;;;;;;;;;;;;;;;;;;;;;;;;;;;;;;;;;;;;;;;;;;;;;;;;;;;
"RGN078";"1987";;"Windows 7";"Rachel's Experiment (SCIAT)";"1.0";"1";"1";"1";"1";"3";"3";"2014-09-09 23:00:03.474";"2014-09-09 23:12:46.377";"1";;;;;;;"1";"1";"0";;;"0";"95";"94";"module.training_block3.exec-7355.GoNoGo3";;;;;;;;;;;;;;;;;;;;;;;;;"1249";"2014-09-09 23:05:45.817";"NST_correctLoc";"22";"1";"FINISHED";"RIGHT";"success";"500";"0";"2014-09-09 23:05:44.567";"3";;;;;;;;;;;;;;;;;;;;;;;;;;;;;;;;;;;;;;;;;;;;;;;;;;;;;
"RGN078";"1987";;"Windows 7";"Rachel's Experiment (SCIAT)";"1.0";"1";"1";"1";"1";"3";"3";"2014-09-09 23:00:03.474";"2014-09-09 23:12:46.377";"1";;;;;;;"1";"1";"0";;;"0";"96";"95";"module.training_block3.exec-7355.GoNoGo3";;;;;;;;;;;;;;;;;;;;;;;;;"1249";"2014-09-09 23:05:48.347";"NST_correctLoc";"32";"1";"FINISHED";"RIGHT";"success";"341";"0";"2014-09-09 23:05:47.097";"3";;;;;;;;;;;;;;;;;;;;;;;;;;;;;;;;;;;;;;;;;;;;;;;;;;;;;
"RGN078";"1987";;"Windows 7";"Rachel's Experiment (SCIAT)";"1.0";"1";"1";"1";"1";"3";"3";"2014-09-09 23:00:03.474";"2014-09-09 23:12:46.377";"1";;;;;;;"1";"1";"0";;;"0";"97";"96";"module.training_block3.exec-7355.GoNoGo3";;;;;;;;;;;;;;;;;;;;;;;;;"1250";"2014-09-09 23:05:50.882";"NST_correctLoc";"35";"1";"FINISHED";"RIGHT";"success";"370";"0";"2014-09-09 23:05:49.632";"3";;;;;;;;;;;;;;;;;;;;;;;;;;;;;;;;;;;;;;;;;;;;;;;;;;;;;
"RGN078";"1987";;"Windows 7";"Rachel's Experiment (SCIAT)";"1.0";"1";"1";"1";"1";"3";"3";"2014-09-09 23:00:03.474";"2014-09-09 23:12:46.377";"1";;;;;;;"1";"1";"0";;;"0";"98";"97";"module.training_block3.exec-7355.GoNoGo3";;;;;;;;;;;;;;;;;;;;;;;;;"1249";"2014-09-09 23:05:53.413";"NST_correctLoc";"6";"0";"FINISHED";"LEFT";"success";"369";"0";"2014-09-09 23:05:52.163";"1";;;;;;;;;;;;;;;;;;;;;;;;;;;;;;;;;;;;;;;;;;;;;;;;;;;;;
"RGN078";"1987";;"Windows 7";"Rachel's Experiment (SCIAT)";"1.0";"1";"1";"1";"1";"3";"3";"2014-09-09 23:00:03.474";"2014-09-09 23:12:46.377";"1";;;;;;;"1";"1";"0";;;"0";"99";"98";"module.training_block3.exec-7355.GoNoGo3";;;;;;;;;;;;;;;;;;;;;;;;;"1249";"2014-09-09 23:05:55.943";"NST_correctLoc";"27";"1";"FINISHED";"RIGHT";"success";"356";"0";"2014-09-09 23:05:54.693";"3";;;;;;;;;;;;;;;;;;;;;;;;;;;;;;;;;;;;;;;;;;;;;;;;;;;;;
"RGN078";"1987";;"Windows 7";"Rachel's Experiment (SCIAT)";"1.0";"1";"1";"1";"1";"3";"3";"2014-09-09 23:00:03.474";"2014-09-09 23:12:46.377";"1";;;;;;;"1";"1";"0";;;"0";"100";"99";"module.training_block3.exec-7355.GoNoGo3";;;;;;;;;;;;;;;;;;;;;;;;;"1249";"2014-09-09 23:05:58.478";"NST_correctLoc";"24";"0";"FINISHED";"LEFT";"success";"472";"0";"2014-09-09 23:05:57.227";"3";;;;;;;;;;;;;;;;;;;;;;;;;;;;;;;;;;;;;;;;;;;;;;;;;;;;;
"RGN078";"1987";;"Windows 7";"Rachel's Experiment (SCIAT)";"1.0";"1";"1";"1";"1";"3";"3";"2014-09-09 23:00:03.474";"2014-09-09 23:12:46.377";"1";;;;;;;"1";"1";"0";;;"0";"101";"100";"module.training_block3.exec-7355.GoNoGo3";;;;;;;;;;;;;;;;;;;;;;;;;"1249";"2014-09-09 23:06:01.006";"NST_correctLoc";"9";"0";"FINISHED";"LEFT";"success";"380";"0";"2014-09-09 23:05:59.756";"2";;;;;;;;;;;;;;;;;;;;;;;;;;;;;;;;;;;;;;;;;;;;;;;;;;;;;
"RGN078";"1987";;"Windows 7";"Rachel's Experiment (SCIAT)";"1.0";"1";"1";"1";"1";"3";"3";"2014-09-09 23:00:03.474";"2014-09-09 23:12:46.377";"1";;;;;;;"1";"1";"0";;;"0";"102";"101";"module.training_block3.exec-7355.GoNoGo3";;;;;;;;;;;;;;;;;;;;;;;;;"1249";"2014-09-09 23:06:03.537";"NST_correctLoc";"14";"1";"FINISHED";"RIGHT";"success";"341";"0";"2014-09-09 23:06:02.287";"2";;;;;;;;;;;;;;;;;;;;;;;;;;;;;;;;;;;;;;;;;;;;;;;;;;;;;
"RGN078";"1987";;"Windows 7";"Rachel's Experiment (SCIAT)";"1.0";"1";"1";"1";"1";"3";"3";"2014-09-09 23:00:03.474";"2014-09-09 23:12:46.377";"1";;;;;;;"1";"1";"0";;;"0";"103";"102";"module.training_block3.exec-7355.GoNoGo3";;;;;;;;;;;;;;;;;;;;;;;;;"1249";"2014-09-09 23:06:06.068";"NST_correctLoc";"13";"0";"FINISHED";"LEFT";"success";"309";"0";"2014-09-09 23:06:04.818";"2";;;;;;;;;;;;;;;;;;;;;;;;;;;;;;;;;;;;;;;;;;;;;;;;;;;;;
"RGN078";"1987";;"Windows 7";"Rachel's Experiment (SCIAT)";"1.0";"1";"1";"1";"1";"3";"3";"2014-09-09 23:00:03.474";"2014-09-09 23:12:46.377";"1";;;;;;;"1";"1";"0";;;"0";"104";"103";"module.training_block3.exec-7355.GoNoGo3";;;;;;;;;;;;;;;;;;;;;;;;;"1249";"2014-09-09 23:06:08.599";"NST_correctLoc";"17";"0";"FINISHED";"LEFT";"success";"373";"0";"2014-09-09 23:06:07.349";"2";;;;;;;;;;;;;;;;;;;;;;;;;;;;;;;;;;;;;;;;;;;;;;;;;;;;;
"RGN078";"1987";;"Windows 7";"Rachel's Experiment (SCIAT)";"1.0";"1";"1";"1";"1";"3";"3";"2014-09-09 23:00:03.474";"2014-09-09 23:12:46.377";"1";;;;;;;"1";"1";"0";;;"0";"105";"104";"module.training_block3.exec-7355.GoNoGo3";;;;;;;;;;;;;;;;;;;;;;;;;"1249";"2014-09-09 23:06:11.129";"NST_correctLoc";"23";"0";"FINISHED";"LEFT";"success";"399";"0";"2014-09-09 23:06:09.879";"3";;;;;;;;;;;;;;;;;;;;;;;;;;;;;;;;;;;;;;;;;;;;;;;;;;;;;
"RGN078";"1987";;"Windows 7";"Rachel's Experiment (SCIAT)";"1.0";"1";"1";"1";"1";"3";"3";"2014-09-09 23:00:03.474";"2014-09-09 23:12:46.377";"1";;;;;;;"1";"1";"0";;;"0";"106";"105";"module.training_block3.exec-7355.GoNoGo3";;;;;;;;;;;;;;;;;;;;;;;;;"1249";"2014-09-09 23:06:13.659";"NST_correctLoc";"20";"1";"FINISHED";"RIGHT";"success";"449";"0";"2014-09-09 23:06:12.409";"3";;;;;;;;;;;;;;;;;;;;;;;;;;;;;;;;;;;;;;;;;;;;;;;;;;;;;
"RGN078";"1987";;"Windows 7";"Rachel's Experiment (SCIAT)";"1.0";"1";"1";"1";"1";"3";"3";"2014-09-09 23:00:03.474";"2014-09-09 23:12:46.377";"1";;;;;;;"1";"1";"0";;;"0";"107";"106";"module.training_block3.exec-7355.GoNoGo3";;;;;;;;;;;;;;;;;;;;;;;;;"1249";"2014-09-09 23:06:16.188";"NST_correctLoc";"1";"1";"FINISHED";"RIGHT";"success";"325";"0";"2014-09-09 23:06:14.937";"1";;;;;;;;;;;;;;;;;;;;;;;;;;;;;;;;;;;;;;;;;;;;;;;;;;;;;
"RGN078";"1987";;"Windows 7";"Rachel's Experiment (SCIAT)";"1.0";"1";"1";"1";"1";"3";"3";"2014-09-09 23:00:03.474";"2014-09-09 23:12:46.377";"1";;;;;;;"1";"1";"0";;;"0";"108";"107";"module.training_block3.exec-7355.GoNoGo3";;;;;;;;;;;;;;;;;;;;;;;;;"1249";"2014-09-09 23:06:18.718";"NST_correctLoc";"28";"0";"FINISHED";"LEFT";"success";"541";"0";"2014-09-09 23:06:17.468";"3";;;;;;;;;;;;;;;;;;;;;;;;;;;;;;;;;;;;;;;;;;;;;;;;;;;;;
"RGN078";"1987";;"Windows 7";"Rachel's Experiment (SCIAT)";"1.0";"1";"1";"1";"1";"3";"3";"2014-09-09 23:00:03.474";"2014-09-09 23:12:46.377";"1";;;;;;;"1";"1";"0";;;"0";"109";"108";"module.training_block3.exec-7355.GoNoGo3";;;;;;;;;;;;;;;;;;;;;;;;;"1249";"2014-09-09 23:06:21.249";"NST_correctLoc";"15";"0";"FINISHED";"LEFT";"success";"391";"0";"2014-09-09 23:06:19.999";"2";;;;;;;;;;;;;;;;;;;;;;;;;;;;;;;;;;;;;;;;;;;;;;;;;;;;;
"RGN078";"1987";;"Windows 7";"Rachel's Experiment (SCIAT)";"1.0";"1";"1";"1";"1";"3";"3";"2014-09-09 23:00:03.474";"2014-09-09 23:12:46.377";"1";;;;;;;"1";"1";"0";;;"0";"110";"109";"module.training_block3.exec-7355.GoNoGo3";;;;;;;;;;;;;;;;;;;;;;;;;"1249";"2014-09-09 23:06:23.778";"NST_correctLoc";"18";"0";"FINISHED";"LEFT";"success";"497";"0";"2014-09-09 23:06:22.528";"3";;;;;;;;;;;;;;;;;;;;;;;;;;;;;;;;;;;;;;;;;;;;;;;;;;;;;
"RGN078";"1987";;"Windows 7";"Rachel's Experiment (SCIAT)";"1.0";"1";"1";"1";"1";"3";"3";"2014-09-09 23:00:03.474";"2014-09-09 23:12:46.377";"1";;;;;;;"1";"1";"0";;;"0";"111";"110";"module.training_block3.exec-7355.GoNoGo3";;;;;;;;;;;;;;;;;;;;;;;;;"1249";"2014-09-09 23:06:26.307";"NST_correctLoc";"0";"1";"FINISHED";"RIGHT";"success";"348";"0";"2014-09-09 23:06:25.057";"1";;;;;;;;;;;;;;;;;;;;;;;;;;;;;;;;;;;;;;;;;;;;;;;;;;;;;
"RGN078";"1987";;"Windows 7";"Rachel's Experiment (SCIAT)";"1.0";"1";"1";"1";"1";"3";"3";"2014-09-09 23:00:03.474";"2014-09-09 23:12:46.377";"1";;;;;;;"1";"1";"0";;;"0";"112";"111";"module.training_block3.exec-7355.GoNoGo3";;;;;;;;;;;;;;;;;;;;;;;;;"1250";"2014-09-09 23:06:28.839";"NST_correctLoc";"30";"0";"FINISHED";"LEFT";"success";"331";"0";"2014-09-09 23:06:27.589";"3";;;;;;;;;;;;;;;;;;;;;;;;;;;;;;;;;;;;;;;;;;;;;;;;;;;;;
"RGN078";"1987";;"Windows 7";"Rachel's Experiment (SCIAT)";"1.0";"1";"1";"1";"1";"3";"3";"2014-09-09 23:00:03.474";"2014-09-09 23:12:46.377";"1";;;;;;;"1";"1";"0";;;"0";"113";"112";"module.training_block3.exec-7355.GoNoGo3";;;;;;;;;;;;;;;;;;;;;;;;;"1249";"2014-09-09 23:06:31.367";"NST_correctLoc";"19";"0";"FINISHED";"LEFT";"success";"406";"0";"2014-09-09 23:06:30.117";"3";;;;;;;;;;;;;;;;;;;;;;;;;;;;;;;;;;;;;;;;;;;;;;;;;;;;;
"RGN078";"1987";;"Windows 7";"Rachel's Experiment (SCIAT)";"1.0";"1";"1";"1";"1";"3";"3";"2014-09-09 23:00:03.474";"2014-09-09 23:12:46.377";"1";;;;;;;"1";"1";"0";;;"0";"114";"113";"module.training_block3.exec-7355.GoNoGo3";;;;;;;;;;;;;;;;;;;;;;;;;"1249";"2014-09-09 23:06:33.897";"NST_correctLoc";"12";"1";"FINISHED";"RIGHT";"success";"346";"0";"2014-09-09 23:06:32.646";"2";;;;;;;;;;;;;;;;;;;;;;;;;;;;;;;;;;;;;;;;;;;;;;;;;;;;;
"RGN078";"1987";;"Windows 7";"Rachel's Experiment (SCIAT)";"1.0";"1";"1";"1";"1";"3";"3";"2014-09-09 23:00:03.474";"2014-09-09 23:12:46.377";"1";;;;;;;"1";"1";"0";;;"0";"115";"114";"module.training_block3.exec-7355.GoNoGo3";;;;;;;;;;;;;;;;;;;;;;;;;"1249";"2014-09-09 23:06:36.426";"NST_correctLoc";"25";"1";"FINISHED";"RIGHT";"success";"444";"0";"2014-09-09 23:06:35.176";"3";;;;;;;;;;;;;;;;;;;;;;;;;;;;;;;;;;;;;;;;;;;;;;;;;;;;;
"RGN078";"1987";;"Windows 7";"Rachel's Experiment (SCIAT)";"1.0";"1";"1";"1";"1";"3";"3";"2014-09-09 23:00:03.474";"2014-09-09 23:12:46.377";"1";;;;;;;"1";"1";"0";;;"0";"116";"115";"module.training_block3.exec-7355.GoNoGo3";;;;;;;;;;;;;;;;;;;;;;;;;"1249";"2014-09-09 23:06:38.954";"NST_correctLoc";"31";"1";"FINISHED";"RIGHT";"success";"312";"0";"2014-09-09 23:06:37.704";"3";;;;;;;;;;;;;;;;;;;;;;;;;;;;;;;;;;;;;;;;;;;;;;;;;;;;;
"RGN078";"1987";;"Windows 7";"Rachel's Experiment (SCIAT)";"1.0";"1";"1";"1";"1";"3";"3";"2014-09-09 23:00:03.474";"2014-09-09 23:12:46.377";"1";;;;;;;"1";"1";"0";;;"0";"117";"116";"module.training_block3.exec-7355.GoNoGo3";;;;;;;;;;;;;;;;;;;;;;;;;"1249";"2014-09-09 23:06:41.489";"NST_correctLoc";"7";"1";"FINISHED";"RIGHT";"success";"332";"0";"2014-09-09 23:06:40.239";"1";;;;;;;;;;;;;;;;;;;;;;;;;;;;;;;;;;;;;;;;;;;;;;;;;;;;;
"RGN078";"1987";;"Windows 7";"Rachel's Experiment (SCIAT)";"1.0";"1";"1";"1";"1";"3";"3";"2014-09-09 23:00:03.474";"2014-09-09 23:12:46.377";"1";;;;;;;"1";"1";"0";;;"0";"118";"117";"module.training_block3.exec-7355.GoNoGo3";;;;;;;;;;;;;;;;;;;;;;;;;"1249";"2014-09-09 23:06:44.018";"NST_correctLoc";"21";"0";"FINISHED";"LEFT";"success";"430";"0";"2014-09-09 23:06:42.768";"3";;;;;;;;;;;;;;;;;;;;;;;;;;;;;;;;;;;;;;;;;;;;;;;;;;;;;
"RGN078";"1987";;"Windows 7";"Rachel's Experiment (SCIAT)";"1.0";"1";"1";"1";"1";"3";"3";"2014-09-09 23:00:03.474";"2014-09-09 23:12:46.377";"1";;;;;;;"1";"1";"0";;;"0";"119";"118";"module.training_block3.exec-7355.GoNoGo3";;;;;;;;;;;;;;;;;;;;;;;;;"1249";"2014-09-09 23:06:46.553";"NST_correctLoc";"34";"0";"FINISHED";"LEFT";"success";"394";"0";"2014-09-09 23:06:45.303";"3";;;;;;;;;;;;;;;;;;;;;;;;;;;;;;;;;;;;;;;;;;;;;;;;;;;;;
"RGN078";"1987";;"Windows 7";"Rachel's Experiment (SCIAT)";"1.0";"1";"1";"1";"1";"3";"3";"2014-09-09 23:00:03.474";"2014-09-09 23:12:46.377";"1";;;;;;;"1";"1";"0";;;"0";"120";"119";"module.training_block3.exec-7355.GoNoGo3";;;;;;;;;;;;;;;;;;;;;;;;;"1250";"2014-09-09 23:06:49.072";"NST_correctLoc";"16";"1";"FINISHED";"RIGHT";"success";"329";"0";"2014-09-09 23:06:47.821";"2";;;;;;;;;;;;;;;;;;;;;;;;;;;;;;;;;;;;;;;;;;;;;;;;;;;;;
"RGN078";"1987";;"Windows 7";"Rachel's Experiment (SCIAT)";"1.0";"1";"1";"1";"1";"3";"3";"2014-09-09 23:00:03.474";"2014-09-09 23:12:46.377";"1";;;;;;;"1";"1";"0";;;"0";"121";"120";"module.training_block3.exec-7355.GoNoGo3";;;;;;;;;;;;;;;;;;;;;;;;;"1249";"2014-09-09 23:06:51.602";"NST_correctLoc";"8";"1";"FINISHED";"RIGHT";"success";"370";"0";"2014-09-09 23:06:50.351";"1";;;;;;;;;;;;;;;;;;;;;;;;;;;;;;;;;;;;;;;;;;;;;;;;;;;;;
"RGN078";"1987";;"Windows 7";"Rachel's Experiment (SCIAT)";"1.0";"1";"1";"1";"1";"3";"3";"2014-09-09 23:00:03.474";"2014-09-09 23:12:46.377";"1";;;;;;;"1";"1";"0";;;"0";"122";"121";"module.training_block3.exec-7355.GoNoGo3";;;;;;;;;;;;;;;;;;;;;;;;;"1249";"2014-09-09 23:06:54.131";"NST_correctLoc";"33";"1";"FINISHED";"RIGHT";"success";"341";"0";"2014-09-09 23:06:52.881";"3";;;;;;;;;;;;;;;;;;;;;;;;;;;;;;;;;;;;;;;;;;;;;;;;;;;;;
"RGN078";"1987";;"Windows 7";"Rachel's Experiment (SCIAT)";"1.0";"1";"1";"1";"1";"3";"3";"2014-09-09 23:00:03.474";"2014-09-09 23:12:46.377";"1";;;;;;;"1";"1";"0";;;"0";"123";"122";"module.training_block3.exec-7355.GoNoGo3";;;;;;;;;;;;;;;;;;;;;;;;;"1249";"2014-09-09 23:06:56.660";"NST_correctLoc";"5";"0";"FINISHED";"LEFT";"success";"526";"0";"2014-09-09 23:06:55.410";"1";;;;;;;;;;;;;;;;;;;;;;;;;;;;;;;;;;;;;;;;;;;;;;;;;;;;;
"RGN078";"1987";;"Windows 7";"Rachel's Experiment (SCIAT)";"1.0";"1";"1";"1";"1";"3";"3";"2014-09-09 23:00:03.474";"2014-09-09 23:12:46.377";"1";;;;;;;"1";"1";"0";;;"0";"124";"123";"module.training_block4.exec-1245.GoNoGo4";;;;;;;;;;;;;;;;;;;;;;;;;;;;;;;;;;;;;"1249";"2014-09-09 23:07:07.427";"NST_correctLoc";"3";"1";"FINISHED";"RIGHT";"success";"386";"0";"2014-09-09 23:07:06.177";"1";;;;;;;;;;;;;;;;;;;;;;;;;;;;;;;;;;;;;;;;;
"RGN078";"1987";;"Windows 7";"Rachel's Experiment (SCIAT)";"1.0";"1";"1";"1";"1";"3";"3";"2014-09-09 23:00:03.474";"2014-09-09 23:12:46.377";"1";;;;;;;"1";"1";"0";;;"0";"125";"124";"module.training_block4.exec-1245.GoNoGo4";;;;;;;;;;;;;;;;;;;;;;;;;;;;;;;;;;;;;"1249";"2014-09-09 23:07:09.957";"NST_correctLoc";"13";"1";"FINISHED";"RIGHT";"success";"365";"0";"2014-09-09 23:07:08.707";"2";;;;;;;;;;;;;;;;;;;;;;;;;;;;;;;;;;;;;;;;;
"RGN078";"1987";;"Windows 7";"Rachel's Experiment (SCIAT)";"1.0";"1";"1";"1";"1";"3";"3";"2014-09-09 23:00:03.474";"2014-09-09 23:12:46.377";"1";;;;;;;"1";"1";"0";;;"0";"126";"125";"module.training_block4.exec-1245.GoNoGo4";;;;;;;;;;;;;;;;;;;;;;;;;;;;;;;;;;;;;"1249";"2014-09-09 23:07:12.486";"NST_correctLoc";"24";"1";"FINISHED";"RIGHT";"success";"359";"0";"2014-09-09 23:07:11.236";"3";;;;;;;;;;;;;;;;;;;;;;;;;;;;;;;;;;;;;;;;;
"RGN078";"1987";;"Windows 7";"Rachel's Experiment (SCIAT)";"1.0";"1";"1";"1";"1";"3";"3";"2014-09-09 23:00:03.474";"2014-09-09 23:12:46.377";"1";;;;;;;"1";"1";"0";;;"0";"127";"126";"module.training_block4.exec-1245.GoNoGo4";;;;;;;;;;;;;;;;;;;;;;;;;;;;;;;;;;;;;"1249";"2014-09-09 23:07:15.014";"NST_correctLoc";"19";"1";"FINISHED";"RIGHT";"success";"362";"0";"2014-09-09 23:07:13.764";"3";;;;;;;;;;;;;;;;;;;;;;;;;;;;;;;;;;;;;;;;;
"RGN078";"1987";;"Windows 7";"Rachel's Experiment (SCIAT)";"1.0";"1";"1";"1";"1";"3";"3";"2014-09-09 23:00:03.474";"2014-09-09 23:12:46.377";"1";;;;;;;"1";"1";"0";;;"0";"128";"127";"module.training_block4.exec-1245.GoNoGo4";;;;;;;;;;;;;;;;;;;;;;;;;;;;;;;;;;;;;"1249";"2014-09-09 23:07:17.541";"NST_correctLoc";"17";"1";"FINISHED";"RIGHT";"success";"327";"0";"2014-09-09 23:07:16.291";"2";;;;;;;;;;;;;;;;;;;;;;;;;;;;;;;;;;;;;;;;;
"RGN078";"1987";;"Windows 7";"Rachel's Experiment (SCIAT)";"1.0";"1";"1";"1";"1";"3";"3";"2014-09-09 23:00:03.474";"2014-09-09 23:12:46.377";"1";;;;;;;"1";"1";"0";;;"0";"129";"128";"module.training_block4.exec-1245.GoNoGo4";;;;;;;;;;;;;;;;;;;;;;;;;;;;;;;;;;;;;"1249";"2014-09-09 23:07:20.071";"NST_correctLoc";"7";"0";"FINISHED";"LEFT";"success";"424";"0";"2014-09-09 23:07:18.821";"1";;;;;;;;;;;;;;;;;;;;;;;;;;;;;;;;;;;;;;;;;
"RGN078";"1987";;"Windows 7";"Rachel's Experiment (SCIAT)";"1.0";"1";"1";"1";"1";"3";"3";"2014-09-09 23:00:03.474";"2014-09-09 23:12:46.377";"1";;;;;;;"1";"1";"0";;;"0";"130";"129";"module.training_block4.exec-1245.GoNoGo4";;;;;;;;;;;;;;;;;;;;;;;;;;;;;;;;;;;;;"1249";"2014-09-09 23:07:22.599";"NST_correctLoc";"32";"0";"FINISHED";"LEFT";"success";"524";"0";"2014-09-09 23:07:21.349";"3";;;;;;;;;;;;;;;;;;;;;;;;;;;;;;;;;;;;;;;;;
"RGN078";"1987";;"Windows 7";"Rachel's Experiment (SCIAT)";"1.0";"1";"1";"1";"1";"3";"3";"2014-09-09 23:00:03.474";"2014-09-09 23:12:46.377";"1";;;;;;;"1";"1";"0";;;"0";"131";"130";"module.training_block4.exec-1245.GoNoGo4";;;;;;;;;;;;;;;;;;;;;;;;;;;;;;;;;;;;;"1249";"2014-09-09 23:07:25.127";"NST_correctLoc";"27";"0";"FINISHED";"LEFT";"success";"583";"0";"2014-09-09 23:07:23.877";"3";;;;;;;;;;;;;;;;;;;;;;;;;;;;;;;;;;;;;;;;;
"RGN078";"1987";;"Windows 7";"Rachel's Experiment (SCIAT)";"1.0";"1";"1";"1";"1";"3";"3";"2014-09-09 23:00:03.474";"2014-09-09 23:12:46.377";"1";;;;;;;"1";"1";"0";;;"0";"132";"131";"module.training_block4.exec-1245.GoNoGo4";;;;;;;;;;;;;;;;;;;;;;;;;;;;;;;;;;;;;"1249";"2014-09-09 23:07:27.658";"NST_correctLoc";"15";"1";"FINISHED";"RIGHT";"success";"441";"0";"2014-09-09 23:07:26.408";"2";;;;;;;;;;;;;;;;;;;;;;;;;;;;;;;;;;;;;;;;;
"RGN078";"1987";;"Windows 7";"Rachel's Experiment (SCIAT)";"1.0";"1";"1";"1";"1";"3";"3";"2014-09-09 23:00:03.474";"2014-09-09 23:12:46.377";"1";;;;;;;"1";"1";"0";;;"0";"133";"132";"module.training_block4.exec-1245.GoNoGo4";;;;;;;;;;;;;;;;;;;;;;;;;;;;;;;;;;;;;"1249";"2014-09-09 23:07:30.193";"NST_correctLoc";"29";"1";"FINISHED";"RIGHT";"success";"414";"0";"2014-09-09 23:07:28.943";"3";;;;;;;;;;;;;;;;;;;;;;;;;;;;;;;;;;;;;;;;;
"RGN078";"1987";;"Windows 7";"Rachel's Experiment (SCIAT)";"1.0";"1";"1";"1";"1";"3";"3";"2014-09-09 23:00:03.474";"2014-09-09 23:12:46.377";"1";;;;;;;"1";"1";"0";;;"0";"134";"133";"module.training_block4.exec-1245.GoNoGo4";;;;;;;;;;;;;;;;;;;;;;;;;;;;;;;;;;;;;"1249";"2014-09-09 23:07:32.727";"NST_correctLoc";"35";"0";"FINISHED";"LEFT";"success";"498";"0";"2014-09-09 23:07:31.477";"3";;;;;;;;;;;;;;;;;;;;;;;;;;;;;;;;;;;;;;;;;
"RGN078";"1987";;"Windows 7";"Rachel's Experiment (SCIAT)";"1.0";"1";"1";"1";"1";"3";"3";"2014-09-09 23:00:03.474";"2014-09-09 23:12:46.377";"1";;;;;;;"1";"1";"0";;;"0";"135";"134";"module.training_block4.exec-1245.GoNoGo4";;;;;;;;;;;;;;;;;;;;;;;;;;;;;;;;;;;;;"1249";"2014-09-09 23:07:35.257";"NST_correctLoc";"26";"1";"FINISHED";"RIGHT";"success";"301";"0";"2014-09-09 23:07:34.007";"3";;;;;;;;;;;;;;;;;;;;;;;;;;;;;;;;;;;;;;;;;
"RGN078";"1987";;"Windows 7";"Rachel's Experiment (SCIAT)";"1.0";"1";"1";"1";"1";"3";"3";"2014-09-09 23:00:03.474";"2014-09-09 23:12:46.377";"1";;;;;;;"1";"1";"0";;;"0";"136";"135";"module.training_block4.exec-1245.GoNoGo4";;;;;;;;;;;;;;;;;;;;;;;;;;;;;;;;;;;;;"1249";"2014-09-09 23:07:37.785";"NST_correctLoc";"16";"0";"FINISHED";"LEFT";"success";"463";"0";"2014-09-09 23:07:36.535";"2";;;;;;;;;;;;;;;;;;;;;;;;;;;;;;;;;;;;;;;;;
"RGN078";"1987";;"Windows 7";"Rachel's Experiment (SCIAT)";"1.0";"1";"1";"1";"1";"3";"3";"2014-09-09 23:00:03.474";"2014-09-09 23:12:46.377";"1";;;;;;;"1";"1";"0";;;"0";"137";"136";"module.training_block4.exec-1245.GoNoGo4";;;;;;;;;;;;;;;;;;;;;;;;;;;;;;;;;;;;;"1249";"2014-09-09 23:07:40.313";"NST_correctLoc";"21";"0";"FINISHED";"LEFT";"success";"491";"0";"2014-09-09 23:07:39.063";"3";;;;;;;;;;;;;;;;;;;;;;;;;;;;;;;;;;;;;;;;;
"RGN078";"1987";;"Windows 7";"Rachel's Experiment (SCIAT)";"1.0";"1";"1";"1";"1";"3";"3";"2014-09-09 23:00:03.474";"2014-09-09 23:12:46.377";"1";;;;;;;"1";"1";"0";;;"0";"138";"137";"module.training_block4.exec-1245.GoNoGo4";;;;;;;;;;;;;;;;;;;;;;;;;;;;;;;;;;;;;"1249";"2014-09-09 23:07:42.849";"NST_correctLoc";"4";"0";"FINISHED";"LEFT";"success";"391";"0";"2014-09-09 23:07:41.599";"1";;;;;;;;;;;;;;;;;;;;;;;;;;;;;;;;;;;;;;;;;
"RGN078";"1987";;"Windows 7";"Rachel's Experiment (SCIAT)";"1.0";"1";"1";"1";"1";"3";"3";"2014-09-09 23:00:03.474";"2014-09-09 23:12:46.377";"1";;;;;;;"1";"1";"0";;;"0";"139";"138";"module.training_block4.exec-1245.GoNoGo4";;;;;;;;;;;;;;;;;;;;;;;;;;;;;;;;;;;;;"1249";"2014-09-09 23:07:45.379";"NST_correctLoc";"5";"0";"FINISHED";"LEFT";"success";"457";"0";"2014-09-09 23:07:44.129";"1";;;;;;;;;;;;;;;;;;;;;;;;;;;;;;;;;;;;;;;;;
"RGN078";"1987";;"Windows 7";"Rachel's Experiment (SCIAT)";"1.0";"1";"1";"1";"1";"3";"3";"2014-09-09 23:00:03.474";"2014-09-09 23:12:46.377";"1";;;;;;;"1";"1";"0";;;"0";"140";"139";"module.training_block4.exec-1245.GoNoGo4";;;;;;;;;;;;;;;;;;;;;;;;;;;;;;;;;;;;;"1249";"2014-09-09 23:07:47.909";"NST_correctLoc";"8";"0";"FINISHED";"LEFT";"success";"482";"0";"2014-09-09 23:07:46.659";"1";;;;;;;;;;;;;;;;;;;;;;;;;;;;;;;;;;;;;;;;;
"RGN078";"1987";;"Windows 7";"Rachel's Experiment (SCIAT)";"1.0";"1";"1";"1";"1";"3";"3";"2014-09-09 23:00:03.474";"2014-09-09 23:12:46.377";"1";;;;;;;"1";"1";"0";;;"0";"141";"140";"module.training_block4.exec-1245.GoNoGo4";;;;;;;;;;;;;;;;;;;;;;;;;;;;;;;;;;;;;"1249";"2014-09-09 23:07:50.438";"NST_correctLoc";"30";"1";"FINISHED";"RIGHT";"success";"398";"0";"2014-09-09 23:07:49.188";"3";;;;;;;;;;;;;;;;;;;;;;;;;;;;;;;;;;;;;;;;;
"RGN078";"1987";;"Windows 7";"Rachel's Experiment (SCIAT)";"1.0";"1";"1";"1";"1";"3";"3";"2014-09-09 23:00:03.474";"2014-09-09 23:12:46.377";"1";;;;;;;"1";"1";"0";;;"0";"142";"141";"module.training_block4.exec-1245.GoNoGo4";;;;;;;;;;;;;;;;;;;;;;;;;;;;;;;;;;;;;"1249";"2014-09-09 23:07:52.966";"NST_correctLoc";"2";"1";"FINISHED";"RIGHT";"success";"402";"0";"2014-09-09 23:07:51.716";"1";;;;;;;;;;;;;;;;;;;;;;;;;;;;;;;;;;;;;;;;;
"RGN078";"1987";;"Windows 7";"Rachel's Experiment (SCIAT)";"1.0";"1";"1";"1";"1";"3";"3";"2014-09-09 23:00:03.474";"2014-09-09 23:12:46.377";"1";;;;;;;"1";"1";"0";;;"0";"143";"142";"module.training_block4.exec-1245.GoNoGo4";;;;;;;;;;;;;;;;;;;;;;;;;;;;;;;;;;;;;"1249";"2014-09-09 23:07:55.496";"NST_correctLoc";"11";"0";"FINISHED";"LEFT";"success";"442";"0";"2014-09-09 23:07:54.246";"2";;;;;;;;;;;;;;;;;;;;;;;;;;;;;;;;;;;;;;;;;
"RGN078";"1987";;"Windows 7";"Rachel's Experiment (SCIAT)";"1.0";"1";"1";"1";"1";"3";"3";"2014-09-09 23:00:03.474";"2014-09-09 23:12:46.377";"1";;;;;;;"1";"1";"0";;;"0";"144";"143";"module.training_block4.exec-1245.GoNoGo4";;;;;;;;;;;;;;;;;;;;;;;;;;;;;;;;;;;;;"1249";"2014-09-09 23:07:58.025";"NST_correctLoc";"25";"1";"FINISHED";"RIGHT";"success";"342";"0";"2014-09-09 23:07:56.775";"3";;;;;;;;;;;;;;;;;;;;;;;;;;;;;;;;;;;;;;;;;
"RGN078";"1987";;"Windows 7";"Rachel's Experiment (SCIAT)";"1.0";"1";"1";"1";"1";"3";"3";"2014-09-09 23:00:03.474";"2014-09-09 23:12:46.377";"1";;;;;;;"1";"1";"0";;;"0";"145";"144";"module.training_block4.exec-1245.GoNoGo4";;;;;;;;;;;;;;;;;;;;;;;;;;;;;;;;;;;;;"1250";"2014-09-09 23:08:00.555";"NST_correctLoc";"14";"1";"FINISHED";"RIGHT";"success";"360";"0";"2014-09-09 23:07:59.305";"2";;;;;;;;;;;;;;;;;;;;;;;;;;;;;;;;;;;;;;;;;
"RGN078";"1987";;"Windows 7";"Rachel's Experiment (SCIAT)";"1.0";"1";"1";"1";"1";"3";"3";"2014-09-09 23:00:03.474";"2014-09-09 23:12:46.377";"1";;;;;;;"1";"1";"0";;;"0";"146";"145";"module.training_block4.exec-1245.GoNoGo4";;;;;;;;;;;;;;;;;;;;;;;;;;;;;;;;;;;;;"1249";"2014-09-09 23:08:03.084";"NST_correctLoc";"28";"1";"FINISHED";"RIGHT";"success";"331";"0";"2014-09-09 23:08:01.834";"3";;;;;;;;;;;;;;;;;;;;;;;;;;;;;;;;;;;;;;;;;
"RGN078";"1987";;"Windows 7";"Rachel's Experiment (SCIAT)";"1.0";"1";"1";"1";"1";"3";"3";"2014-09-09 23:00:03.474";"2014-09-09 23:12:46.377";"1";;;;;;;"1";"1";"0";;;"0";"147";"146";"module.training_block4.exec-1245.GoNoGo4";;;;;;;;;;;;;;;;;;;;;;;;;;;;;;;;;;;;;"1249";"2014-09-09 23:08:05.614";"NST_correctLoc";"31";"1";"FINISHED";"RIGHT";"success";"460";"0";"2014-09-09 23:08:04.364";"3";;;;;;;;;;;;;;;;;;;;;;;;;;;;;;;;;;;;;;;;;
"RGN078";"1987";;"Windows 7";"Rachel's Experiment (SCIAT)";"1.0";"1";"1";"1";"1";"3";"3";"2014-09-09 23:00:03.474";"2014-09-09 23:12:46.377";"1";;;;;;;"1";"1";"0";;;"0";"148";"147";"module.training_block4.exec-1245.GoNoGo4";;;;;;;;;;;;;;;;;;;;;;;;;;;;;;;;;;;;;"1249";"2014-09-09 23:08:08.143";"NST_correctLoc";"6";"0";"FINISHED";"LEFT";"success";"342";"0";"2014-09-09 23:08:06.893";"1";;;;;;;;;;;;;;;;;;;;;;;;;;;;;;;;;;;;;;;;;
"RGN078";"1987";;"Windows 7";"Rachel's Experiment (SCIAT)";"1.0";"1";"1";"1";"1";"3";"3";"2014-09-09 23:00:03.474";"2014-09-09 23:12:46.377";"1";;;;;;;"1";"1";"0";;;"0";"149";"148";"module.training_block4.exec-1245.GoNoGo4";;;;;;;;;;;;;;;;;;;;;;;;;;;;;;;;;;;;;"1249";"2014-09-09 23:08:10.671";"NST_correctLoc";"9";"0";"FINISHED";"LEFT";"success";"330";"0";"2014-09-09 23:08:09.421";"2";;;;;;;;;;;;;;;;;;;;;;;;;;;;;;;;;;;;;;;;;
"RGN078";"1987";;"Windows 7";"Rachel's Experiment (SCIAT)";"1.0";"1";"1";"1";"1";"3";"3";"2014-09-09 23:00:03.474";"2014-09-09 23:12:46.377";"1";;;;;;;"1";"1";"0";;;"0";"150";"149";"module.training_block4.exec-1245.GoNoGo4";;;;;;;;;;;;;;;;;;;;;;;;;;;;;;;;;;;;;"1249";"2014-09-09 23:08:13.199";"NST_correctLoc";"34";"1";"FINISHED";"RIGHT";"success";"302";"0";"2014-09-09 23:08:11.949";"3";;;;;;;;;;;;;;;;;;;;;;;;;;;;;;;;;;;;;;;;;
"RGN078";"1987";;"Windows 7";"Rachel's Experiment (SCIAT)";"1.0";"1";"1";"1";"1";"3";"3";"2014-09-09 23:00:03.474";"2014-09-09 23:12:46.377";"1";;;;;;;"1";"1";"0";;;"0";"151";"150";"module.training_block4.exec-1245.GoNoGo4";;;;;;;;;;;;;;;;;;;;;;;;;;;;;;;;;;;;;"1250";"2014-09-09 23:08:15.730";"NST_correctLoc";"0";"1";"FINISHED";"RIGHT";"success";"351";"0";"2014-09-09 23:08:14.480";"1";;;;;;;;;;;;;;;;;;;;;;;;;;;;;;;;;;;;;;;;;
"RGN078";"1987";;"Windows 7";"Rachel's Experiment (SCIAT)";"1.0";"1";"1";"1";"1";"3";"3";"2014-09-09 23:00:03.474";"2014-09-09 23:12:46.377";"1";;;;;;;"1";"1";"0";;;"0";"152";"151";"module.training_block4.exec-1245.GoNoGo4";;;;;;;;;;;;;;;;;;;;;;;;;;;;;;;;;;;;;"1249";"2014-09-09 23:08:18.257";"NST_correctLoc";"1";"1";"FINISHED";"RIGHT";"success";"314";"0";"2014-09-09 23:08:17.007";"1";;;;;;;;;;;;;;;;;;;;;;;;;;;;;;;;;;;;;;;;;
"RGN078";"1987";;"Windows 7";"Rachel's Experiment (SCIAT)";"1.0";"1";"1";"1";"1";"3";"3";"2014-09-09 23:00:03.474";"2014-09-09 23:12:46.377";"1";;;;;;;"1";"1";"0";;;"0";"153";"152";"module.training_block4.exec-1245.GoNoGo4";;;;;;;;;;;;;;;;;;;;;;;;;;;;;;;;;;;;;"1249";"2014-09-09 23:08:20.795";"NST_correctLoc";"18";"0";"FINISHED";"LEFT";"success";"325";"0";"2014-09-09 23:08:19.545";"3";;;;;;;;;;;;;;;;;;;;;;;;;;;;;;;;;;;;;;;;;
"RGN078";"1987";;"Windows 7";"Rachel's Experiment (SCIAT)";"1.0";"1";"1";"1";"1";"3";"3";"2014-09-09 23:00:03.474";"2014-09-09 23:12:46.377";"1";;;;;;;"1";"1";"0";;;"0";"154";"153";"module.training_block4.exec-1245.GoNoGo4";;;;;;;;;;;;;;;;;;;;;;;;;;;;;;;;;;;;;"1249";"2014-09-09 23:08:23.324";"NST_correctLoc";"33";"1";"FINISHED";"RIGHT";"success";"280";"0";"2014-09-09 23:08:22.074";"3";;;;;;;;;;;;;;;;;;;;;;;;;;;;;;;;;;;;;;;;;
"RGN078";"1987";;"Windows 7";"Rachel's Experiment (SCIAT)";"1.0";"1";"1";"1";"1";"3";"3";"2014-09-09 23:00:03.474";"2014-09-09 23:12:46.377";"1";;;;;;;"1";"1";"0";;;"0";"155";"154";"module.training_block4.exec-1245.GoNoGo4";;;;;;;;;;;;;;;;;;;;;;;;;;;;;;;;;;;;;"1249";"2014-09-09 23:08:25.852";"NST_correctLoc";"22";"1";"FINISHED";"RIGHT";"success";"284";"0";"2014-09-09 23:08:24.602";"3";;;;;;;;;;;;;;;;;;;;;;;;;;;;;;;;;;;;;;;;;
"RGN078";"1987";;"Windows 7";"Rachel's Experiment (SCIAT)";"1.0";"1";"1";"1";"1";"3";"3";"2014-09-09 23:00:03.474";"2014-09-09 23:12:46.377";"1";;;;;;;"1";"1";"0";;;"0";"156";"155";"module.training_block4.exec-1245.GoNoGo4";;;;;;;;;;;;;;;;;;;;;;;;;;;;;;;;;;;;;"1249";"2014-09-09 23:08:28.382";"NST_correctLoc";"12";"0";"FINISHED";"LEFT";"success";"396";"0";"2014-09-09 23:08:27.132";"2";;;;;;;;;;;;;;;;;;;;;;;;;;;;;;;;;;;;;;;;;
"RGN078";"1987";;"Windows 7";"Rachel's Experiment (SCIAT)";"1.0";"1";"1";"1";"1";"3";"3";"2014-09-09 23:00:03.474";"2014-09-09 23:12:46.377";"1";;;;;;;"1";"1";"0";;;"0";"157";"156";"module.training_block4.exec-1245.GoNoGo4";;;;;;;;;;;;;;;;;;;;;;;;;;;;;;;;;;;;;"1249";"2014-09-09 23:08:30.910";"NST_correctLoc";"20";"1";"FINISHED";"RIGHT";"success";"545";"0";"2014-09-09 23:08:29.660";"3";;;;;;;;;;;;;;;;;;;;;;;;;;;;;;;;;;;;;;;;;
"RGN078";"1987";;"Windows 7";"Rachel's Experiment (SCIAT)";"1.0";"1";"1";"1";"1";"3";"3";"2014-09-09 23:00:03.474";"2014-09-09 23:12:46.377";"1";;;;;;;"1";"1";"0";;;"0";"158";"157";"module.training_block4.exec-1245.GoNoGo4";;;;;;;;;;;;;;;;;;;;;;;;;;;;;;;;;;;;;"1249";"2014-09-09 23:08:33.439";"NST_correctLoc";"10";"0";"FINISHED";"LEFT";"success";"362";"0";"2014-09-09 23:08:32.189";"2";;;;;;;;;;;;;;;;;;;;;;;;;;;;;;;;;;;;;;;;;
"RGN078";"1987";;"Windows 7";"Rachel's Experiment (SCIAT)";"1.0";"1";"1";"1";"1";"3";"3";"2014-09-09 23:00:03.474";"2014-09-09 23:12:46.377";"1";;;;;;;"1";"1";"0";;;"0";"159";"158";"module.training_block4.exec-1245.GoNoGo4";;;;;;;;;;;;;;;;;;;;;;;;;;;;;;;;;;;;;"1249";"2014-09-09 23:08:35.971";"NST_correctLoc";"23";"1";"FINISHED";"RIGHT";"success";"292";"0";"2014-09-09 23:08:34.720";"3";;;;;;;;;;;;;;;;;;;;;;;;;;;;;;;;;;;;;;;;;
"RGN078";"1987";;"Windows 7";"Rachel's Experiment (SCIAT)";"1.0";"1";"1";"1";"1";"3";"3";"2014-09-09 23:00:03.474";"2014-09-09 23:12:46.377";"1";;;;;;;"1";"1";"0";;;"0";"160";"159";"module.IAT_practice1.exec-3352.IAT_Practice1";;;;;;;;;;;;;;;;;;;;;;;;;;;;;;;;;;;;;;;;;;;;;;;;;;;;;;;;;;;;;;;;;;;;;;;;;;;;;;;;"1761";"2014-09-09 23:09:28.906";"FINISHED";"UNPLEASANT";"success";"971";"2014-09-09 23:09:27.144";"IAT_UPpractice.csv";"1";"nasty"
"RGN078";"1987";;"Windows 7";"Rachel's Experiment (SCIAT)";"1.0";"1";"1";"1";"1";"3";"3";"2014-09-09 23:00:03.474";"2014-09-09 23:12:46.377";"1";;;;;;;"1";"1";"0";;;"0";"161";"160";"module.IAT_practice1.exec-3352.IAT_Practice1";;;;;;;;;;;;;;;;;;;;;;;;;;;;;;;;;;;;;;;;;;;;;;;;;;;;;;;;;;;;;;;;;;;;;;;;;;;;;;;;"1717";"2014-09-09 23:09:30.667";"FINISHED";"UNPLEASANT";"failure";"1306";"2014-09-09 23:09:28.949";"IAT_UPpractice.csv";"2";"general"
"RGN078";"1987";;"Windows 7";"Rachel's Experiment (SCIAT)";"1.0";"1";"1";"1";"1";"3";"3";"2014-09-09 23:00:03.474";"2014-09-09 23:12:46.377";"1";;;;;;;"1";"1";"0";;;"0";"162";"161";"module.IAT_practice1.exec-3352.IAT_Practice1";;;;;;;;;;;;;;;;;;;;;;;;;;;;;;;;;;;;;;;;;;;;;;;;;;;;;;;;;;;;;;;;;;;;;;;;;;;;;;;;"1700";"2014-09-09 23:09:32.439";"FINISHED";"NEUTRAL";"success";"1258";"2014-09-09 23:09:30.738";"IAT_UPpractice.csv";"2";"adequate"
"RGN078";"1987";;"Windows 7";"Rachel's Experiment (SCIAT)";"1.0";"1";"1";"1";"1";"3";"3";"2014-09-09 23:00:03.474";"2014-09-09 23:12:46.377";"1";;;;;;;"1";"1";"0";;;"0";"163";"162";"module.IAT_practice1.exec-3352.IAT_Practice1";;;;;;;;;;;;;;;;;;;;;;;;;;;;;;;;;;;;;;;;;;;;;;;;;;;;;;;;;;;;;;;;;;;;;;;;;;;;;;;;"1701";"2014-09-09 23:09:34.330";"FINISHED";"NEUTRAL";"success";"893";"2014-09-09 23:09:32.628";"IAT_UPpractice.csv";"2";"moderate"
"RGN078";"1987";;"Windows 7";"Rachel's Experiment (SCIAT)";"1.0";"1";"1";"1";"1";"3";"3";"2014-09-09 23:00:03.474";"2014-09-09 23:12:46.377";"1";;;;;;;"1";"1";"0";;;"0";"164";"163";"module.IAT_practice1.exec-3352.IAT_Practice1";;;;;;;;;;;;;;;;;;;;;;;;;;;;;;;;;;;;;;;;;;;;;;;;;;;;;;;;;;;;;;;;;;;;;;;;;;;;;;;;"1701";"2014-09-09 23:09:36.057";"FINISHED";"NEUTRAL";"success";"794";"2014-09-09 23:09:34.355";"IAT_UPpractice.csv";"2";"general"
"RGN078";"1987";;"Windows 7";"Rachel's Experiment (SCIAT)";"1.0";"1";"1";"1";"1";"3";"3";"2014-09-09 23:00:03.474";"2014-09-09 23:12:46.377";"1";;;;;;;"1";"1";"0";;;"0";"165";"164";"module.IAT_practice1.exec-3352.IAT_Practice1";;;;;;;;;;;;;;;;;;;;;;;;;;;;;;;;;;;;;;;;;;;;;;;;;;;;;;;;;;;;;;;;;;;;;;;;;;;;;;;;"1704";"2014-09-09 23:09:37.806";"FINISHED";"UNPLEASANT";"success";"587";"2014-09-09 23:09:36.102";"IAT_UPpractice.csv";"1";"disgusting"
"RGN078";"1987";;"Windows 7";"Rachel's Experiment (SCIAT)";"1.0";"1";"1";"1";"1";"3";"3";"2014-09-09 23:00:03.474";"2014-09-09 23:12:46.377";"1";;;;;;;"1";"1";"0";;;"0";"166";"165";"module.IAT_practice1.exec-3352.IAT_Practice1";;;;;;;;;;;;;;;;;;;;;;;;;;;;;;;;;;;;;;;;;;;;;;;;;;;;;;;;;;;;;;;;;;;;;;;;;;;;;;;;"1701";"2014-09-09 23:09:39.549";"FINISHED";"UNPLEASANT";"success";"646";"2014-09-09 23:09:37.847";"IAT_UPpractice.csv";"1";"nasty"
"RGN078";"1987";;"Windows 7";"Rachel's Experiment (SCIAT)";"1.0";"1";"1";"1";"1";"3";"3";"2014-09-09 23:00:03.474";"2014-09-09 23:12:46.377";"1";;;;;;;"1";"1";"0";;;"0";"167";"166";"module.IAT_practice1.exec-3352.IAT_Practice1";;;;;;;;;;;;;;;;;;;;;;;;;;;;;;;;;;;;;;;;;;;;;;;;;;;;;;;;;;;;;;;;;;;;;;;;;;;;;;;;"1701";"2014-09-09 23:09:41.294";"FINISHED";"UNPLEASANT";"success";"618";"2014-09-09 23:09:39.592";"IAT_UPpractice.csv";"1";"horrible"
"RGN078";"1987";;"Windows 7";"Rachel's Experiment (SCIAT)";"1.0";"1";"1";"1";"1";"3";"3";"2014-09-09 23:00:03.474";"2014-09-09 23:12:46.377";"1";;;;;;;"1";"1";"0";;;"0";"168";"167";"module.IAT_practice1.exec-3352.IAT_Practice1";;;;;;;;;;;;;;;;;;;;;;;;;;;;;;;;;;;;;;;;;;;;;;;;;;;;;;;;;;;;;;;;;;;;;;;;;;;;;;;;"1701";"2014-09-09 23:09:43.037";"FINISHED";"NEUTRAL";"success";"632";"2014-09-09 23:09:41.335";"IAT_UPpractice.csv";"2";"average"
"RGN078";"1987";;"Windows 7";"Rachel's Experiment (SCIAT)";"1.0";"1";"1";"1";"1";"3";"3";"2014-09-09 23:00:03.474";"2014-09-09 23:12:46.377";"1";;;;;;;"1";"1";"0";;;"0";"169";"168";"module.IAT_practice1.exec-3352.IAT_Practice1";;;;;;;;;;;;;;;;;;;;;;;;;;;;;;;;;;;;;;;;;;;;;;;;;;;;;;;;;;;;;;;;;;;;;;;;;;;;;;;;"1701";"2014-09-09 23:09:44.786";"FINISHED";"NEUTRAL";"success";"879";"2014-09-09 23:09:43.084";"IAT_UPpractice.csv";"2";"undefined"
"RGN078";"1987";;"Windows 7";"Rachel's Experiment (SCIAT)";"1.0";"1";"1";"1";"1";"3";"3";"2014-09-09 23:00:03.474";"2014-09-09 23:12:46.377";"1";;;;;;;"1";"1";"0";;;"0";"170";"169";"module.IAT_practice1.exec-3352.IAT_Practice1";;;;;;;;;;;;;;;;;;;;;;;;;;;;;;;;;;;;;;;;;;;;;;;;;;;;;;;;;;;;;;;;;;;;;;;;;;;;;;;;"1701";"2014-09-09 23:09:46.539";"FINISHED";"UNPLEASANT";"success";"675";"2014-09-09 23:09:44.836";"IAT_UPpractice.csv";"1";"awful"
"RGN078";"1987";;"Windows 7";"Rachel's Experiment (SCIAT)";"1.0";"1";"1";"1";"1";"3";"3";"2014-09-09 23:00:03.474";"2014-09-09 23:12:46.377";"1";;;;;;;"1";"1";"0";;;"0";"171";"170";"module.IAT_practice1.exec-3352.IAT_Practice1";;;;;;;;;;;;;;;;;;;;;;;;;;;;;;;;;;;;;;;;;;;;;;;;;;;;;;;;;;;;;;;;;;;;;;;;;;;;;;;;"1701";"2014-09-09 23:09:48.284";"FINISHED";"UNPLEASANT";"success";"822";"2014-09-09 23:09:46.582";"IAT_UPpractice.csv";"1";"revolting"
"RGN078";"1987";;"Windows 7";"Rachel's Experiment (SCIAT)";"1.0";"1";"1";"1";"1";"3";"3";"2014-09-09 23:00:03.474";"2014-09-09 23:12:46.377";"1";;;;;;;"1";"1";"0";;;"0";"172";"171";"module.IAT_practice1.exec-3352.IAT_Practice1";;;;;;;;;;;;;;;;;;;;;;;;;;;;;;;;;;;;;;;;;;;;;;;;;;;;;;;;;;;;;;;;;;;;;;;;;;;;;;;;"1701";"2014-09-09 23:09:50.013";"FINISHED";"UNPLEASANT";"success";"657";"2014-09-09 23:09:48.311";"IAT_UPpractice.csv";"1";"disgusting"
"RGN078";"1987";;"Windows 7";"Rachel's Experiment (SCIAT)";"1.0";"1";"1";"1";"1";"3";"3";"2014-09-09 23:00:03.474";"2014-09-09 23:12:46.377";"1";;;;;;;"1";"1";"0";;;"0";"173";"172";"module.IAT_practice1.exec-3352.IAT_Practice1";;;;;;;;;;;;;;;;;;;;;;;;;;;;;;;;;;;;;;;;;;;;;;;;;;;;;;;;;;;;;;;;;;;;;;;;;;;;;;;;"1701";"2014-09-09 23:09:51.758";"FINISHED";"UNPLEASANT";"success";"684";"2014-09-09 23:09:50.056";"IAT_UPpractice.csv";"1";"bad"
"RGN078";"1987";;"Windows 7";"Rachel's Experiment (SCIAT)";"1.0";"1";"1";"1";"1";"3";"3";"2014-09-09 23:00:03.474";"2014-09-09 23:12:46.377";"1";;;;;;;"1";"1";"0";;;"0";"174";"173";"module.IAT_practice1.exec-3352.IAT_Practice1";;;;;;;;;;;;;;;;;;;;;;;;;;;;;;;;;;;;;;;;;;;;;;;;;;;;;;;;;;;;;;;;;;;;;;;;;;;;;;;;"1702";"2014-09-09 23:09:53.489";"FINISHED";"NEUTRAL";"success";"647";"2014-09-09 23:09:51.786";"IAT_UPpractice.csv";"2";"adequate"
"RGN078";"1987";;"Windows 7";"Rachel's Experiment (SCIAT)";"1.0";"1";"1";"1";"1";"3";"3";"2014-09-09 23:00:03.474";"2014-09-09 23:12:46.377";"1";;;;;;;"1";"1";"0";;;"0";"175";"174";"module.IAT_practice1.exec-3352.IAT_Practice1";;;;;;;;;;;;;;;;;;;;;;;;;;;;;;;;;;;;;;;;;;;;;;;;;;;;;;;;;;;;;;;;;;;;;;;;;;;;;;;;"1701";"2014-09-09 23:09:55.220";"FINISHED";"NEUTRAL";"success";"512";"2014-09-09 23:09:53.518";"IAT_UPpractice.csv";"2";"moderate"
"RGN078";"1987";;"Windows 7";"Rachel's Experiment (SCIAT)";"1.0";"1";"1";"1";"1";"3";"3";"2014-09-09 23:00:03.474";"2014-09-09 23:12:46.377";"1";;;;;;;"1";"1";"0";;;"0";"176";"175";"module.IAT_practice1.exec-3352.IAT_Practice1";;;;;;;;;;;;;;;;;;;;;;;;;;;;;;;;;;;;;;;;;;;;;;;;;;;;;;;;;;;;;;;;;;;;;;;;;;;;;;;;"1701";"2014-09-09 23:09:56.951";"FINISHED";"UNPLEASANT";"success";"568";"2014-09-09 23:09:55.249";"IAT_UPpractice.csv";"1";"revolting"
"RGN078";"1987";;"Windows 7";"Rachel's Experiment (SCIAT)";"1.0";"1";"1";"1";"1";"3";"3";"2014-09-09 23:00:03.474";"2014-09-09 23:12:46.377";"1";;;;;;;"1";"1";"0";;;"0";"177";"176";"module.IAT_practice1.exec-3352.IAT_Practice1";;;;;;;;;;;;;;;;;;;;;;;;;;;;;;;;;;;;;;;;;;;;;;;;;;;;;;;;;;;;;;;;;;;;;;;;;;;;;;;;"1701";"2014-09-09 23:09:58.680";"FINISHED";"UNPLEASANT";"success";"604";"2014-09-09 23:09:56.978";"IAT_UPpractice.csv";"1";"horrible"
"RGN078";"1987";;"Windows 7";"Rachel's Experiment (SCIAT)";"1.0";"1";"1";"1";"1";"3";"3";"2014-09-09 23:00:03.474";"2014-09-09 23:12:46.377";"1";;;;;;;"1";"1";"0";;;"0";"178";"177";"module.IAT_practice1.exec-3352.IAT_Practice1";;;;;;;;;;;;;;;;;;;;;;;;;;;;;;;;;;;;;;;;;;;;;;;;;;;;;;;;;;;;;;;;;;;;;;;;;;;;;;;;"1701";"2014-09-09 23:10:00.411";"FINISHED";"UNPLEASANT";"success";"557";"2014-09-09 23:09:58.709";"IAT_UPpractice.csv";"1";"bad"
"RGN078";"1987";;"Windows 7";"Rachel's Experiment (SCIAT)";"1.0";"1";"1";"1";"1";"3";"3";"2014-09-09 23:00:03.474";"2014-09-09 23:12:46.377";"1";;;;;;;"1";"1";"0";;;"0";"179";"178";"module.IAT_practice1.exec-3352.IAT_Practice1";;;;;;;;;;;;;;;;;;;;;;;;;;;;;;;;;;;;;;;;;;;;;;;;;;;;;;;;;;;;;;;;;;;;;;;;;;;;;;;;"1701";"2014-09-09 23:10:02.159";"FINISHED";"NEUTRAL";"success";"765";"2014-09-09 23:10:00.458";"IAT_UPpractice.csv";"2";"ordinary"
"RGN078";"1987";;"Windows 7";"Rachel's Experiment (SCIAT)";"1.0";"1";"1";"1";"1";"3";"3";"2014-09-09 23:00:03.474";"2014-09-09 23:12:46.377";"1";;;;;;;"1";"1";"0";;;"0";"180";"179";"module.IAT_practice1.exec-3352.IAT_Practice1";;;;;;;;;;;;;;;;;;;;;;;;;;;;;;;;;;;;;;;;;;;;;;;;;;;;;;;;;;;;;;;;;;;;;;;;;;;;;;;;"1701";"2014-09-09 23:10:03.892";"FINISHED";"UNPLEASANT";"success";"557";"2014-09-09 23:10:02.189";"IAT_UPpractice.csv";"1";"awful"
"RGN078";"1987";;"Windows 7";"Rachel's Experiment (SCIAT)";"1.0";"1";"1";"1";"1";"3";"3";"2014-09-09 23:00:03.474";"2014-09-09 23:12:46.377";"1";;;;;;;"1";"1";"0";;;"0";"181";"180";"module.IAT_practice1.exec-3352.IAT_Practice1";;;;;;;;;;;;;;;;;;;;;;;;;;;;;;;;;;;;;;;;;;;;;;;;;;;;;;;;;;;;;;;;;;;;;;;;;;;;;;;;"1701";"2014-09-09 23:10:05.623";"FINISHED";"NEUTRAL";"success";"568";"2014-09-09 23:10:03.921";"IAT_UPpractice.csv";"2";"ordinary"
"RGN078";"1987";;"Windows 7";"Rachel's Experiment (SCIAT)";"1.0";"1";"1";"1";"1";"3";"3";"2014-09-09 23:00:03.474";"2014-09-09 23:12:46.377";"1";;;;;;;"1";"1";"0";;;"0";"182";"181";"module.IAT_practice1.exec-3352.IAT_Practice1";;;;;;;;;;;;;;;;;;;;;;;;;;;;;;;;;;;;;;;;;;;;;;;;;;;;;;;;;;;;;;;;;;;;;;;;;;;;;;;;"1702";"2014-09-09 23:10:07.354";"FINISHED";"NEUTRAL";"success";"873";"2014-09-09 23:10:05.652";"IAT_UPpractice.csv";"2";"undefined"
"RGN078";"1987";;"Windows 7";"Rachel's Experiment (SCIAT)";"1.0";"1";"1";"1";"1";"3";"3";"2014-09-09 23:00:03.474";"2014-09-09 23:12:46.377";"1";;;;;;;"1";"1";"0";;;"0";"183";"182";"module.IAT_practice1.exec-3352.IAT_Practice1";;;;;;;;;;;;;;;;;;;;;;;;;;;;;;;;;;;;;;;;;;;;;;;;;;;;;;;;;;;;;;;;;;;;;;;;;;;;;;;;"1703";"2014-09-09 23:10:09.095";"FINISHED";"NEUTRAL";"success";"555";"2014-09-09 23:10:07.391";"IAT_UPpractice.csv";"2";"average"
"RGN078";"1987";;"Windows 7";"Rachel's Experiment (SCIAT)";"1.0";"1";"1";"1";"1";"3";"3";"2014-09-09 23:00:03.474";"2014-09-09 23:12:46.377";"1";;;;;;;"1";"1";"0";;;"0";"184";"183";"module.IAT_Block1.exec-6493.IAT_block1";;;;;;;;;;;;;;;;;;;;;;;;;;;;;;;;;;;;;;;;;;;;;;;;;;;;;;;;;;;;;;;;;;;;;;"1704";"2014-09-09 23:10:36.408";"FINISHED";"UNPLEASANT";"success";"833";"2014-09-09 23:10:34.704";"IAT_UPN.csv";"1";"horrible";;;;;;;;;;
"RGN078";"1987";;"Windows 7";"Rachel's Experiment (SCIAT)";"1.0";"1";"1";"1";"1";"3";"3";"2014-09-09 23:00:03.474";"2014-09-09 23:12:46.377";"1";;;;;;;"1";"1";"0";;;"0";"185";"184";"module.IAT_Block1.exec-6493.IAT_block1";;;;;;;;;;;;;;;;;;;;;;;;;;;;;;;;;;;;;;;;;;;;;;;;;;;;;;;;;;;;;;;;;;;;;;"1701";"2014-09-09 23:10:38.140";"FINISHED";"UNPLEASANT";"success";"599";"2014-09-09 23:10:36.438";"IAT_UPN.csv";"1";"awful";;;;;;;;;;
"RGN078";"1987";;"Windows 7";"Rachel's Experiment (SCIAT)";"1.0";"1";"1";"1";"1";"3";"3";"2014-09-09 23:00:03.474";"2014-09-09 23:12:46.377";"1";;;;;;;"1";"1";"0";;;"0";"186";"185";"module.IAT_Block1.exec-6493.IAT_block1";;;;;;;;;;;;;;;;;;;;;;;;;;;;;;;;;;;;;;;;;;;;;;;;;;;;;;;;;;;;;;;;;;;;;;"1702";"2014-09-09 23:10:39.911";"FINISHED";"NEUTRAL";"success";"659";"2014-09-09 23:10:38.208";"IAT_UPN.csv";"2";"A3";;;;;;;;;;
"RGN078";"1987";;"Windows 7";"Rachel's Experiment (SCIAT)";"1.0";"1";"1";"1";"1";"3";"3";"2014-09-09 23:00:03.474";"2014-09-09 23:12:46.377";"1";;;;;;;"1";"1";"0";;;"0";"187";"186";"module.IAT_Block1.exec-6493.IAT_block1";;;;;;;;;;;;;;;;;;;;;;;;;;;;;;;;;;;;;;;;;;;;;;;;;;;;;;;;;;;;;;;;;;;;;;"1701";"2014-09-09 23:10:41.649";"FINISHED";"NEUTRAL";"success";"509";"2014-09-09 23:10:39.947";"IAT_UPN.csv";"2";"A4";;;;;;;;;;
"RGN078";"1987";;"Windows 7";"Rachel's Experiment (SCIAT)";"1.0";"1";"1";"1";"1";"3";"3";"2014-09-09 23:00:03.474";"2014-09-09 23:12:46.377";"1";;;;;;;"1";"1";"0";;;"0";"188";"187";"module.IAT_Block1.exec-6493.IAT_block1";;;;;;;;;;;;;;;;;;;;;;;;;;;;;;;;;;;;;;;;;;;;;;;;;;;;;;;;;;;;;;;;;;;;;;"1701";"2014-09-09 23:10:43.380";"FINISHED";"NEUTRAL";"success";"486";"2014-09-09 23:10:41.678";"IAT_UPN.csv";"2";"A3";;;;;;;;;;
"RGN078";"1987";;"Windows 7";"Rachel's Experiment (SCIAT)";"1.0";"1";"1";"1";"1";"3";"3";"2014-09-09 23:00:03.474";"2014-09-09 23:12:46.377";"1";;;;;;;"1";"1";"0";;;"0";"189";"188";"module.IAT_Block1.exec-6493.IAT_block1";;;;;;;;;;;;;;;;;;;;;;;;;;;;;;;;;;;;;;;;;;;;;;;;;;;;;;;;;;;;;;;;;;;;;;"1701";"2014-09-09 23:10:45.111";"FINISHED";"UNPLEASANT";"success";"518";"2014-09-09 23:10:43.409";"IAT_UPN.csv";"1";"revolting";;;;;;;;;;
"RGN078";"1987";;"Windows 7";"Rachel's Experiment (SCIAT)";"1.0";"1";"1";"1";"1";"3";"3";"2014-09-09 23:00:03.474";"2014-09-09 23:12:46.377";"1";;;;;;;"1";"1";"0";;;"0";"190";"189";"module.IAT_Block1.exec-6493.IAT_block1";;;;;;;;;;;;;;;;;;;;;;;;;;;;;;;;;;;;;;;;;;;;;;;;;;;;;;;;;;;;;;;;;;;;;;"1701";"2014-09-09 23:10:46.843";"FINISHED";"NEUTRAL";"success";"576";"2014-09-09 23:10:45.141";"IAT_UPN.csv";"2";"A4";;;;;;;;;;
"RGN078";"1987";;"Windows 7";"Rachel's Experiment (SCIAT)";"1.0";"1";"1";"1";"1";"3";"3";"2014-09-09 23:00:03.474";"2014-09-09 23:12:46.377";"1";;;;;;;"1";"1";"0";;;"0";"191";"190";"module.IAT_Block1.exec-6493.IAT_block1";;;;;;;;;;;;;;;;;;;;;;;;;;;;;;;;;;;;;;;;;;;;;;;;;;;;;;;;;;;;;;;;;;;;;;"1702";"2014-09-09 23:10:48.573";"FINISHED";"NEUTRAL";"success";"507";"2014-09-09 23:10:46.871";"IAT_UPN.csv";"2";"A3";;;;;;;;;;
"RGN078";"1987";;"Windows 7";"Rachel's Experiment (SCIAT)";"1.0";"1";"1";"1";"1";"3";"3";"2014-09-09 23:00:03.474";"2014-09-09 23:12:46.377";"1";;;;;;;"1";"1";"0";;;"0";"192";"191";"module.IAT_Block1.exec-6493.IAT_block1";;;;;;;;;;;;;;;;;;;;;;;;;;;;;;;;;;;;;;;;;;;;;;;;;;;;;;;;;;;;;;;;;;;;;;"1701";"2014-09-09 23:10:50.304";"FINISHED";"NEUTRAL";"success";"619";"2014-09-09 23:10:48.602";"IAT_UPN.csv";"2";"average";;;;;;;;;;
"RGN078";"1987";;"Windows 7";"Rachel's Experiment (SCIAT)";"1.0";"1";"1";"1";"1";"3";"3";"2014-09-09 23:00:03.474";"2014-09-09 23:12:46.377";"1";;;;;;;"1";"1";"0";;;"0";"193";"192";"module.IAT_Block1.exec-6493.IAT_block1";;;;;;;;;;;;;;;;;;;;;;;;;;;;;;;;;;;;;;;;;;;;;;;;;;;;;;;;;;;;;;;;;;;;;;"1701";"2014-09-09 23:10:52.047";"FINISHED";"NEUTRAL";"success";"521";"2014-09-09 23:10:50.345";"IAT_UPN.csv";"2";"A5";;;;;;;;;;
"RGN078";"1987";;"Windows 7";"Rachel's Experiment (SCIAT)";"1.0";"1";"1";"1";"1";"3";"3";"2014-09-09 23:00:03.474";"2014-09-09 23:12:46.377";"1";;;;;;;"1";"1";"0";;;"0";"194";"193";"module.IAT_Block1.exec-6493.IAT_block1";;;;;;;;;;;;;;;;;;;;;;;;;;;;;;;;;;;;;;;;;;;;;;;;;;;;;;;;;;;;;;;;;;;;;;"1701";"2014-09-09 23:10:53.779";"FINISHED";"UNPLEASANT";"success";"632";"2014-09-09 23:10:52.077";"IAT_UPN.csv";"1";"bad";;;;;;;;;;
"RGN078";"1987";;"Windows 7";"Rachel's Experiment (SCIAT)";"1.0";"1";"1";"1";"1";"3";"3";"2014-09-09 23:00:03.474";"2014-09-09 23:12:46.377";"1";;;;;;;"1";"1";"0";;;"0";"195";"194";"module.IAT_Block1.exec-6493.IAT_block1";;;;;;;;;;;;;;;;;;;;;;;;;;;;;;;;;;;;;;;;;;;;;;;;;;;;;;;;;;;;;;;;;;;;;;"1701";"2014-09-09 23:10:55.512";"FINISHED";"NEUTRAL";"success";"632";"2014-09-09 23:10:53.810";"IAT_UPN.csv";"2";"undefined";;;;;;;;;;
"RGN078";"1987";;"Windows 7";"Rachel's Experiment (SCIAT)";"1.0";"1";"1";"1";"1";"3";"3";"2014-09-09 23:00:03.474";"2014-09-09 23:12:46.377";"1";;;;;;;"1";"1";"0";;;"0";"196";"195";"module.IAT_Block1.exec-6493.IAT_block1";;;;;;;;;;;;;;;;;;;;;;;;;;;;;;;;;;;;;;;;;;;;;;;;;;;;;;;;;;;;;;;;;;;;;;"1701";"2014-09-09 23:10:57.252";"FINISHED";"NEUTRAL";"success";"753";"2014-09-09 23:10:55.549";"IAT_UPN.csv";"2";"A0";;;;;;;;;;
"RGN078";"1987";;"Windows 7";"Rachel's Experiment (SCIAT)";"1.0";"1";"1";"1";"1";"3";"3";"2014-09-09 23:00:03.474";"2014-09-09 23:12:46.377";"1";;;;;;;"1";"1";"0";;;"0";"197";"196";"module.IAT_Block1.exec-6493.IAT_block1";;;;;;;;;;;;;;;;;;;;;;;;;;;;;;;;;;;;;;;;;;;;;;;;;;;;;;;;;;;;;;;;;;;;;;"1702";"2014-09-09 23:10:58.993";"FINISHED";"NEUTRAL";"success";"457";"2014-09-09 23:10:57.291";"IAT_UPN.csv";"2";"A1";;;;;;;;;;
"RGN078";"1987";;"Windows 7";"Rachel's Experiment (SCIAT)";"1.0";"1";"1";"1";"1";"3";"3";"2014-09-09 23:00:03.474";"2014-09-09 23:12:46.377";"1";;;;;;;"1";"1";"0";;;"0";"198";"197";"module.IAT_Block1.exec-6493.IAT_block1";;;;;;;;;;;;;;;;;;;;;;;;;;;;;;;;;;;;;;;;;;;;;;;;;;;;;;;;;;;;;;;;;;;;;;"1701";"2014-09-09 23:11:00.724";"FINISHED";"NEUTRAL";"success";"450";"2014-09-09 23:10:59.022";"IAT_UPN.csv";"2";"A1";;;;;;;;;;
"RGN078";"1987";;"Windows 7";"Rachel's Experiment (SCIAT)";"1.0";"1";"1";"1";"1";"3";"3";"2014-09-09 23:00:03.474";"2014-09-09 23:12:46.377";"1";;;;;;;"1";"1";"0";;;"0";"199";"198";"module.IAT_Block1.exec-6493.IAT_block1";;;;;;;;;;;;;;;;;;;;;;;;;;;;;;;;;;;;;;;;;;;;;;;;;;;;;;;;;;;;;;;;;;;;;;"1701";"2014-09-09 23:11:02.455";"FINISHED";"NEUTRAL";"success";"388";"2014-09-09 23:11:00.753";"IAT_UPN.csv";"2";"A1";;;;;;;;;;
"RGN078";"1987";;"Windows 7";"Rachel's Experiment (SCIAT)";"1.0";"1";"1";"1";"1";"3";"3";"2014-09-09 23:00:03.474";"2014-09-09 23:12:46.377";"1";;;;;;;"1";"1";"0";;;"0";"200";"199";"module.IAT_Block1.exec-6493.IAT_block1";;;;;;;;;;;;;;;;;;;;;;;;;;;;;;;;;;;;;;;;;;;;;;;;;;;;;;;;;;;;;;;;;;;;;;"1702";"2014-09-09 23:11:04.195";"FINISHED";"NEUTRAL";"success";"396";"2014-09-09 23:11:02.493";"IAT_UPN.csv";"2";"A4";;;;;;;;;;
"RGN078";"1987";;"Windows 7";"Rachel's Experiment (SCIAT)";"1.0";"1";"1";"1";"1";"3";"3";"2014-09-09 23:00:03.474";"2014-09-09 23:12:46.377";"1";;;;;;;"1";"1";"0";;;"0";"201";"200";"module.IAT_Block1.exec-6493.IAT_block1";;;;;;;;;;;;;;;;;;;;;;;;;;;;;;;;;;;;;;;;;;;;;;;;;;;;;;;;;;;;;;;;;;;;;;"1701";"2014-09-09 23:11:05.926";"FINISHED";"NEUTRAL";"success";"397";"2014-09-09 23:11:04.224";"IAT_UPN.csv";"2";"A5";;;;;;;;;;
"RGN078";"1987";;"Windows 7";"Rachel's Experiment (SCIAT)";"1.0";"1";"1";"1";"1";"3";"3";"2014-09-09 23:00:03.474";"2014-09-09 23:12:46.377";"1";;;;;;;"1";"1";"0";;;"0";"202";"201";"module.IAT_Block1.exec-6493.IAT_block1";;;;;;;;;;;;;;;;;;;;;;;;;;;;;;;;;;;;;;;;;;;;;;;;;;;;;;;;;;;;;;;;;;;;;;"1701";"2014-09-09 23:11:07.656";"FINISHED";"UNPLEASANT";"success";"518";"2014-09-09 23:11:05.954";"IAT_UPN.csv";"1";"bad";;;;;;;;;;
"RGN078";"1987";;"Windows 7";"Rachel's Experiment (SCIAT)";"1.0";"1";"1";"1";"1";"3";"3";"2014-09-09 23:00:03.474";"2014-09-09 23:12:46.377";"1";;;;;;;"1";"1";"0";;;"0";"203";"202";"module.IAT_Block1.exec-6493.IAT_block1";;;;;;;;;;;;;;;;;;;;;;;;;;;;;;;;;;;;;;;;;;;;;;;;;;;;;;;;;;;;;;;;;;;;;;"1701";"2014-09-09 23:11:09.385";"FINISHED";"UNPLEASANT";"success";"626";"2014-09-09 23:11:07.683";"IAT_UPN.csv";"1";"horrible";;;;;;;;;;
"RGN078";"1987";;"Windows 7";"Rachel's Experiment (SCIAT)";"1.0";"1";"1";"1";"1";"3";"3";"2014-09-09 23:00:03.474";"2014-09-09 23:12:46.377";"1";;;;;;;"1";"1";"0";;;"0";"204";"203";"module.IAT_Block1.exec-6493.IAT_block1";;;;;;;;;;;;;;;;;;;;;;;;;;;;;;;;;;;;;;;;;;;;;;;;;;;;;;;;;;;;;;;;;;;;;;"1703";"2014-09-09 23:11:11.157";"FINISHED";"NEUTRAL";"success";"629";"2014-09-09 23:11:09.453";"IAT_UPN.csv";"2";"A2";;;;;;;;;;
"RGN078";"1987";;"Windows 7";"Rachel's Experiment (SCIAT)";"1.0";"1";"1";"1";"1";"3";"3";"2014-09-09 23:00:03.474";"2014-09-09 23:12:46.377";"1";;;;;;;"1";"1";"0";;;"0";"205";"204";"module.IAT_Block1.exec-6493.IAT_block1";;;;;;;;;;;;;;;;;;;;;;;;;;;;;;;;;;;;;;;;;;;;;;;;;;;;;;;;;;;;;;;;;;;;;;"1701";"2014-09-09 23:11:12.890";"FINISHED";"NEUTRAL";"success";"467";"2014-09-09 23:11:11.188";"IAT_UPN.csv";"2";"A2";;;;;;;;;;
"RGN078";"1987";;"Windows 7";"Rachel's Experiment (SCIAT)";"1.0";"1";"1";"1";"1";"3";"3";"2014-09-09 23:00:03.474";"2014-09-09 23:12:46.377";"1";;;;;;;"1";"1";"0";;;"0";"206";"205";"module.IAT_Block1.exec-6493.IAT_block1";;;;;;;;;;;;;;;;;;;;;;;;;;;;;;;;;;;;;;;;;;;;;;;;;;;;;;;;;;;;;;;;;;;;;;"1702";"2014-09-09 23:11:14.623";"FINISHED";"UNPLEASANT";"success";"682";"2014-09-09 23:11:12.920";"IAT_UPN.csv";"1";"nasty";;;;;;;;;;
"RGN078";"1987";;"Windows 7";"Rachel's Experiment (SCIAT)";"1.0";"1";"1";"1";"1";"3";"3";"2014-09-09 23:00:03.474";"2014-09-09 23:12:46.377";"1";;;;;;;"1";"1";"0";;;"0";"207";"206";"module.IAT_Block1.exec-6493.IAT_block1";;;;;;;;;;;;;;;;;;;;;;;;;;;;;;;;;;;;;;;;;;;;;;;;;;;;;;;;;;;;;;;;;;;;;;"1702";"2014-09-09 23:11:16.354";"FINISHED";"UNPLEASANT";"success";"683";"2014-09-09 23:11:14.652";"IAT_UPN.csv";"1";"awful";;;;;;;;;;
"RGN078";"1987";;"Windows 7";"Rachel's Experiment (SCIAT)";"1.0";"1";"1";"1";"1";"3";"3";"2014-09-09 23:00:03.474";"2014-09-09 23:12:46.377";"1";;;;;;;"1";"1";"0";;;"0";"208";"207";"module.IAT_Block1.exec-6493.IAT_block1";;;;;;;;;;;;;;;;;;;;;;;;;;;;;;;;;;;;;;;;;;;;;;;;;;;;;;;;;;;;;;;;;;;;;;"1701";"2014-09-09 23:11:18.084";"FINISHED";"NEUTRAL";"success";"638";"2014-09-09 23:11:16.382";"IAT_UPN.csv";"2";"moderate";;;;;;;;;;
"RGN078";"1987";;"Windows 7";"Rachel's Experiment (SCIAT)";"1.0";"1";"1";"1";"1";"3";"3";"2014-09-09 23:00:03.474";"2014-09-09 23:12:46.377";"1";;;;;;;"1";"1";"0";;;"0";"209";"208";"module.IAT_Block1.exec-6493.IAT_block1";;;;;;;;;;;;;;;;;;;;;;;;;;;;;;;;;;;;;;;;;;;;;;;;;;;;;;;;;;;;;;;;;;;;;;"1701";"2014-09-09 23:11:19.814";"FINISHED";"UNPLEASANT";"success";"568";"2014-09-09 23:11:18.112";"IAT_UPN.csv";"1";"horrible";;;;;;;;;;
"RGN078";"1987";;"Windows 7";"Rachel's Experiment (SCIAT)";"1.0";"1";"1";"1";"1";"3";"3";"2014-09-09 23:00:03.474";"2014-09-09 23:12:46.377";"1";;;;;;;"1";"1";"0";;;"0";"210";"209";"module.IAT_Block1.exec-6493.IAT_block1";;;;;;;;;;;;;;;;;;;;;;;;;;;;;;;;;;;;;;;;;;;;;;;;;;;;;;;;;;;;;;;;;;;;;;"1702";"2014-09-09 23:11:21.544";"FINISHED";"NEUTRAL";"success";"883";"2014-09-09 23:11:19.842";"IAT_UPN.csv";"2";"A4";;;;;;;;;;
"RGN078";"1987";;"Windows 7";"Rachel's Experiment (SCIAT)";"1.0";"1";"1";"1";"1";"3";"3";"2014-09-09 23:00:03.474";"2014-09-09 23:12:46.377";"1";;;;;;;"1";"1";"0";;;"0";"211";"210";"module.IAT_Block1.exec-6493.IAT_block1";;;;;;;;;;;;;;;;;;;;;;;;;;;;;;;;;;;;;;;;;;;;;;;;;;;;;;;;;;;;;;;;;;;;;;"1701";"2014-09-09 23:11:23.274";"FINISHED";"UNPLEASANT";"success";"724";"2014-09-09 23:11:21.572";"IAT_UPN.csv";"1";"horrible";;;;;;;;;;
"RGN078";"1987";;"Windows 7";"Rachel's Experiment (SCIAT)";"1.0";"1";"1";"1";"1";"3";"3";"2014-09-09 23:00:03.474";"2014-09-09 23:12:46.377";"1";;;;;;;"1";"1";"0";;;"0";"212";"211";"module.IAT_Block1.exec-6493.IAT_block1";;;;;;;;;;;;;;;;;;;;;;;;;;;;;;;;;;;;;;;;;;;;;;;;;;;;;;;;;;;;;;;;;;;;;;"1702";"2014-09-09 23:11:25.005";"FINISHED";"NEUTRAL";"success";"791";"2014-09-09 23:11:23.303";"IAT_UPN.csv";"2";"general";;;;;;;;;;
"RGN078";"1987";;"Windows 7";"Rachel's Experiment (SCIAT)";"1.0";"1";"1";"1";"1";"3";"3";"2014-09-09 23:00:03.474";"2014-09-09 23:12:46.377";"1";;;;;;;"1";"1";"0";;;"0";"213";"212";"module.IAT_Block1.exec-6493.IAT_block1";;;;;;;;;;;;;;;;;;;;;;;;;;;;;;;;;;;;;;;;;;;;;;;;;;;;;;;;;;;;;;;;;;;;;;"1701";"2014-09-09 23:11:26.736";"FINISHED";"NEUTRAL";"success";"512";"2014-09-09 23:11:25.034";"IAT_UPN.csv";"2";"A0";;;;;;;;;;
"RGN078";"1987";;"Windows 7";"Rachel's Experiment (SCIAT)";"1.0";"1";"1";"1";"1";"3";"3";"2014-09-09 23:00:03.474";"2014-09-09 23:12:46.377";"1";;;;;;;"1";"1";"0";;;"0";"214";"213";"module.IAT_Block1.exec-6493.IAT_block1";;;;;;;;;;;;;;;;;;;;;;;;;;;;;;;;;;;;;;;;;;;;;;;;;;;;;;;;;;;;;;;;;;;;;;"1700";"2014-09-09 23:11:28.464";"FINISHED";"UNPLEASANT";"success";"554";"2014-09-09 23:11:26.763";"IAT_UPN.csv";"1";"awful";;;;;;;;;;
"RGN078";"1987";;"Windows 7";"Rachel's Experiment (SCIAT)";"1.0";"1";"1";"1";"1";"3";"3";"2014-09-09 23:00:03.474";"2014-09-09 23:12:46.377";"1";;;;;;;"1";"1";"0";;;"0";"215";"214";"module.IAT_Block1.exec-6493.IAT_block1";;;;;;;;;;;;;;;;;;;;;;;;;;;;;;;;;;;;;;;;;;;;;;;;;;;;;;;;;;;;;;;;;;;;;;"1702";"2014-09-09 23:11:30.196";"FINISHED";"UNPLEASANT";"success";"508";"2014-09-09 23:11:28.494";"IAT_UPN.csv";"1";"horrible";;;;;;;;;;
"RGN078";"1987";;"Windows 7";"Rachel's Experiment (SCIAT)";"1.0";"1";"1";"1";"1";"3";"3";"2014-09-09 23:00:03.474";"2014-09-09 23:12:46.377";"1";;;;;;;"1";"1";"0";;;"0";"216";"215";"module.IAT_Block1.exec-6493.IAT_block1";;;;;;;;;;;;;;;;;;;;;;;;;;;;;;;;;;;;;;;;;;;;;;;;;;;;;;;;;;;;;;;;;;;;;;"1702";"2014-09-09 23:11:31.927";"FINISHED";"NEUTRAL";"success";"536";"2014-09-09 23:11:30.224";"IAT_UPN.csv";"2";"A3";;;;;;;;;;
"RGN078";"1987";;"Windows 7";"Rachel's Experiment (SCIAT)";"1.0";"1";"1";"1";"1";"3";"3";"2014-09-09 23:00:03.474";"2014-09-09 23:12:46.377";"1";;;;;;;"1";"1";"0";;;"0";"217";"216";"module.IAT_Block1.exec-6493.IAT_block1";;;;;;;;;;;;;;;;;;;;;;;;;;;;;;;;;;;;;;;;;;;;;;;;;;;;;;;;;;;;;;;;;;;;;;"1701";"2014-09-09 23:11:33.657";"FINISHED";"NEUTRAL";"success";"393";"2014-09-09 23:11:31.955";"IAT_UPN.csv";"2";"A0";;;;;;;;;;
"RGN078";"1987";;"Windows 7";"Rachel's Experiment (SCIAT)";"1.0";"1";"1";"1";"1";"3";"3";"2014-09-09 23:00:03.474";"2014-09-09 23:12:46.377";"1";;;;;;;"1";"1";"0";;;"0";"218";"217";"module.IAT_Block1.exec-6493.IAT_block1";;;;;;;;;;;;;;;;;;;;;;;;;;;;;;;;;;;;;;;;;;;;;;;;;;;;;;;;;;;;;;;;;;;;;;"1702";"2014-09-09 23:11:35.387";"FINISHED";"NEUTRAL";"success";"852";"2014-09-09 23:11:33.685";"IAT_UPN.csv";"2";"undefined";;;;;;;;;;
"RGN078";"1987";;"Windows 7";"Rachel's Experiment (SCIAT)";"1.0";"1";"1";"1";"1";"3";"3";"2014-09-09 23:00:03.474";"2014-09-09 23:12:46.377";"1";;;;;;;"1";"1";"0";;;"0";"219";"218";"module.IAT_Block1.exec-6493.IAT_block1";;;;;;;;;;;;;;;;;;;;;;;;;;;;;;;;;;;;;;;;;;;;;;;;;;;;;;;;;;;;;;;;;;;;;;"1700";"2014-09-09 23:11:37.115";"FINISHED";"UNPLEASANT";"success";"542";"2014-09-09 23:11:35.414";"IAT_UPN.csv";"1";"bad";;;;;;;;;;
"RGN078";"1987";;"Windows 7";"Rachel's Experiment (SCIAT)";"1.0";"1";"1";"1";"1";"3";"3";"2014-09-09 23:00:03.474";"2014-09-09 23:12:46.377";"1";;;;;;;"1";"1";"0";;;"0";"220";"219";"module.IAT_Block1.exec-6493.IAT_block1";;;;;;;;;;;;;;;;;;;;;;;;;;;;;;;;;;;;;;;;;;;;;;;;;;;;;;;;;;;;;;;;;;;;;;"1700";"2014-09-09 23:11:38.876";"FINISHED";"UNPLEASANT";"success";"561";"2014-09-09 23:11:37.175";"IAT_UPN.csv";"1";"nasty";;;;;;;;;;
"RGN078";"1987";;"Windows 7";"Rachel's Experiment (SCIAT)";"1.0";"1";"1";"1";"1";"3";"3";"2014-09-09 23:00:03.474";"2014-09-09 23:12:46.377";"1";;;;;;;"1";"1";"0";;;"0";"221";"220";"module.IAT_Block1.exec-6493.IAT_block1";;;;;;;;;;;;;;;;;;;;;;;;;;;;;;;;;;;;;;;;;;;;;;;;;;;;;;;;;;;;;;;;;;;;;;"1701";"2014-09-09 23:11:40.606";"FINISHED";"NEUTRAL";"success";"557";"2014-09-09 23:11:38.904";"IAT_UPN.csv";"2";"moderate";;;;;;;;;;
"RGN078";"1987";;"Windows 7";"Rachel's Experiment (SCIAT)";"1.0";"1";"1";"1";"1";"3";"3";"2014-09-09 23:00:03.474";"2014-09-09 23:12:46.377";"1";;;;;;;"1";"1";"0";;;"0";"222";"221";"module.IAT_Block1.exec-6493.IAT_block1";;;;;;;;;;;;;;;;;;;;;;;;;;;;;;;;;;;;;;;;;;;;;;;;;;;;;;;;;;;;;;;;;;;;;;"1703";"2014-09-09 23:11:42.339";"FINISHED";"UNPLEASANT";"success";"550";"2014-09-09 23:11:40.635";"IAT_UPN.csv";"1";"nasty";;;;;;;;;;
"RGN078";"1987";;"Windows 7";"Rachel's Experiment (SCIAT)";"1.0";"1";"1";"1";"1";"3";"3";"2014-09-09 23:00:03.474";"2014-09-09 23:12:46.377";"1";;;;;;;"1";"1";"0";;;"0";"223";"222";"module.IAT_Block1.exec-6493.IAT_block1";;;;;;;;;;;;;;;;;;;;;;;;;;;;;;;;;;;;;;;;;;;;;;;;;;;;;;;;;;;;;;;;;;;;;;"1702";"2014-09-09 23:11:44.070";"FINISHED";"NEUTRAL";"success";"503";"2014-09-09 23:11:42.368";"IAT_UPN.csv";"2";"A0";;;;;;;;;;
"RGN078";"1987";;"Windows 7";"Rachel's Experiment (SCIAT)";"1.0";"1";"1";"1";"1";"3";"3";"2014-09-09 23:00:03.474";"2014-09-09 23:12:46.377";"1";;;;;;;"1";"1";"0";;;"0";"224";"223";"module.IAT_Block1.exec-6493.IAT_block1";;;;;;;;;;;;;;;;;;;;;;;;;;;;;;;;;;;;;;;;;;;;;;;;;;;;;;;;;;;;;;;;;;;;;;"1701";"2014-09-09 23:11:45.800";"FINISHED";"UNPLEASANT";"failure";"543";"2014-09-09 23:11:44.098";"IAT_UPN.csv";"2";"adequate";;;;;;;;;;
"RGN078";"1987";;"Windows 7";"Rachel's Experiment (SCIAT)";"1.0";"1";"1";"1";"1";"3";"3";"2014-09-09 23:00:03.474";"2014-09-09 23:12:46.377";"1";;;;;;;"1";"1";"0";;;"0";"225";"224";"module.IAT_Block1.exec-6493.IAT_block1";;;;;;;;;;;;;;;;;;;;;;;;;;;;;;;;;;;;;;;;;;;;;;;;;;;;;;;;;;;;;;;;;;;;;;"1702";"2014-09-09 23:11:47.531";"FINISHED";"NEUTRAL";"success";"714";"2014-09-09 23:11:45.828";"IAT_UPN.csv";"2";"average";;;;;;;;;;
"RGN078";"1987";;"Windows 7";"Rachel's Experiment (SCIAT)";"1.0";"1";"1";"1";"1";"3";"3";"2014-09-09 23:00:03.474";"2014-09-09 23:12:46.377";"1";;;;;;;"1";"1";"0";;;"0";"226";"225";"module.IAT_Block1.exec-6493.IAT_block1";;;;;;;;;;;;;;;;;;;;;;;;;;;;;;;;;;;;;;;;;;;;;;;;;;;;;;;;;;;;;;;;;;;;;;"1701";"2014-09-09 23:11:49.267";"FINISHED";"NEUTRAL";"success";"526";"2014-09-09 23:11:47.565";"IAT_UPN.csv";"2";"A3";;;;;;;;;;
