"user.name";"user.yearOfBirth";"user.sex";"user.osName";"module.name";"module.version";"module.online.subject.code";"module.online.study.id";"module.online.module.nr";"module.online.group.nr";"session.id";"session.index";"session.startTime";"session.endTime";"session.completed";"session.node-2514.conditionType";"session.node-8108.blockOrder";"session.node-8108.IATorder";"session.node-8108.keyOrder";"session.node-9503.conditionType";"session.node-9732.blockOrder";"session.node-9732.IATorder";"session.node-9732.keyOrder";"trial.id";"trial.index";"trial.name";"trial.GoNoGo1.durationTime";"trial.GoNoGo1.endTime";"trial.GoNoGo1.Error Type";"trial.GoNoGo1.icon";"trial.GoNoGo1.location";"trial.GoNoGo1.outcome";"trial.GoNoGo1.response";"trial.GoNoGo1.result";"trial.GoNoGo1.RT";"trial.GoNoGo1.signal";"trial.GoNoGo1.startTime";"trial.GoNoGo1.stimulus type";"trial.GoNoGo2.durationTime";"trial.GoNoGo2.endTime";"trial.GoNoGo2.Error Type";"trial.GoNoGo2.icon";"trial.GoNoGo2.location";"trial.GoNoGo2.outcome";"trial.GoNoGo2.response";"trial.GoNoGo2.result";"trial.GoNoGo2.RT";"trial.GoNoGo2.signal";"trial.GoNoGo2.startTime";"trial.GoNoGo2.stimulus type";"trial.GoNoGo3.durationTime";"trial.GoNoGo3.endTime";"trial.GoNoGo3.Error Type";"trial.GoNoGo3.icon";"trial.GoNoGo3.location";"trial.GoNoGo3.outcome";"trial.GoNoGo3.response";"trial.GoNoGo3.result";"trial.GoNoGo3.RT";"trial.GoNoGo3.signal";"trial.GoNoGo3.startTime";"trial.GoNoGo3.stimulus type";"trial.GoNoGo4.durationTime";"trial.GoNoGo4.endTime";"trial.GoNoGo4.Error Type";"trial.GoNoGo4.icon";"trial.GoNoGo4.location";"trial.GoNoGo4.outcome";"trial.GoNoGo4.response";"trial.GoNoGo4.result";"trial.GoNoGo4.RT";"trial.GoNoGo4.signal";"trial.GoNoGo4.startTime";"trial.GoNoGo4.stimulus type";"trial.GoNoGo_Practice.durationTime";"trial.GoNoGo_Practice.endTime";"trial.GoNoGo_Practice.icon";"trial.GoNoGo_Practice.location";"trial.GoNoGo_Practice.outcome";"trial.GoNoGo_Practice.response";"trial.GoNoGo_Practice.result";"trial.GoNoGo_Practice.RT";"trial.GoNoGo_Practice.signal";"trial.GoNoGo_Practice.startTime";"trial.GoNoGo_Practice.stimulus type";"trial.GoNoGo_Tutorial.durationTime";"trial.GoNoGo_Tutorial.endTime";"trial.GoNoGo_Tutorial.icon";"trial.GoNoGo_Tutorial.location";"trial.GoNoGo_Tutorial.outcome";"trial.GoNoGo_Tutorial.response";"trial.GoNoGo_Tutorial.result";"trial.GoNoGo_Tutorial.RT";"trial.GoNoGo_Tutorial.signal";"trial.GoNoGo_Tutorial.startTime"
"chadwick123";"1994";;"Windows 7";"Rachel's Experiment (SCIAT)";"1.0";"1";"1";"1";"1";"2";"2";"2014-10-01 10:46:53.148";"2014-10-01 10:55:02.820";"1";"1";;;;;"1";"0";"1";"1";"0";"module.GoNoGotutorial.exec-1483.GoNoGo_Tutorial";;;;;;;;;;;;;;;;;;;;;;;;;;;;;;;;;;;;;;;;;;;;;;;;;;;;;;;;;;;;"3988";"2014-10-01 10:47:16.695";"leftResponse";"0";"FINISHED";"NONE";"failure";"0";"0";"2014-10-01 10:47:12.695"
"chadwick123";"1994";;"Windows 7";"Rachel's Experiment (SCIAT)";"1.0";"1";"1";"1";"1";"2";"2";"2014-10-01 10:46:53.148";"2014-10-01 10:55:02.820";"1";"1";;;;;"1";"0";"1";"2";"1";"module.GoNoGotutorial.exec-1483.GoNoGo_Tutorial";;;;;;;;;;;;;;;;;;;;;;;;;;;;;;;;;;;;;;;;;;;;;;;;;;;;;;;;;;;;"3986";"2014-10-01 10:47:22.101";"rightResponse";"1";"FINISHED";"RIGHT";"success";"2169";"0";"2014-10-01 10:47:18.101"
"chadwick123";"1994";;"Windows 7";"Rachel's Experiment (SCIAT)";"1.0";"1";"1";"1";"1";"2";"2";"2014-10-01 10:46:53.148";"2014-10-01 10:55:02.820";"1";"1";;;;;"1";"0";"1";"3";"2";"module.GoNoGotutorial.exec-1483.GoNoGo_Tutorial";;;;;;;;;;;;;;;;;;;;;;;;;;;;;;;;;;;;;;;;;;;;;;;;;;;;;;;;;;;;"3994";"2014-10-01 10:47:27.367";"signalResponse";"0";"FINISHED";"NONE";"success";"0";"1";"2014-10-01 10:47:23.367"
"chadwick123";"1994";;"Windows 7";"Rachel's Experiment (SCIAT)";"1.0";"1";"1";"1";"1";"2";"2";"2014-10-01 10:46:53.148";"2014-10-01 10:55:02.820";"1";"1";;;;;"1";"0";"1";"4";"3";"module.GoNoGopractice.exec-4919.GoNoGo_Practice";;;;;;;;;;;;;;;;;;;;;;;;;;;;;;;;;;;;;;;;;;;;;;;;;"1947";"2014-10-01 10:47:34.945";"18";"0";"FINISHED";"LEFT";"success";"638";"0";"2014-10-01 10:47:32.992";"3";;;;;;;;;;
"chadwick123";"1994";;"Windows 7";"Rachel's Experiment (SCIAT)";"1.0";"1";"1";"1";"1";"2";"2";"2014-10-01 10:46:53.148";"2014-10-01 10:55:02.820";"1";"1";;;;;"1";"0";"1";"5";"4";"module.GoNoGopractice.exec-4919.GoNoGo_Practice";;;;;;;;;;;;;;;;;;;;;;;;;;;;;;;;;;;;;;;;;;;;;;;;;"1947";"2014-10-01 10:47:38.164";"21";"1";"FINISHED";"RIGHT";"success";"379";"0";"2014-10-01 10:47:36.210";"3";;;;;;;;;;
"chadwick123";"1994";;"Windows 7";"Rachel's Experiment (SCIAT)";"1.0";"1";"1";"1";"1";"2";"2";"2014-10-01 10:46:53.148";"2014-10-01 10:55:02.820";"1";"1";;;;;"1";"0";"1";"6";"5";"module.GoNoGopractice.exec-4919.GoNoGo_Practice";;;;;;;;;;;;;;;;;;;;;;;;;;;;;;;;;;;;;;;;;;;;;;;;;"1947";"2014-10-01 10:47:41.382";"14";"1";"FINISHED";"RIGHT";"failure";"385";"1";"2014-10-01 10:47:39.429";"2";;;;;;;;;;
"chadwick123";"1994";;"Windows 7";"Rachel's Experiment (SCIAT)";"1.0";"1";"1";"1";"1";"2";"2";"2014-10-01 10:46:53.148";"2014-10-01 10:55:02.820";"1";"1";;;;;"1";"0";"1";"7";"6";"module.GoNoGopractice.exec-4919.GoNoGo_Practice";;;;;;;;;;;;;;;;;;;;;;;;;;;;;;;;;;;;;;;;;;;;;;;;;"1948";"2014-10-01 10:47:44.601";"26";"0";"FINISHED";"LEFT";"success";"438";"0";"2014-10-01 10:47:42.648";"3";;;;;;;;;;
"chadwick123";"1994";;"Windows 7";"Rachel's Experiment (SCIAT)";"1.0";"1";"1";"1";"1";"2";"2";"2014-10-01 10:46:53.148";"2014-10-01 10:55:02.820";"1";"1";;;;;"1";"0";"1";"8";"7";"module.GoNoGopractice.exec-4919.GoNoGo_Practice";;;;;;;;;;;;;;;;;;;;;;;;;;;;;;;;;;;;;;;;;;;;;;;;;"1948";"2014-10-01 10:47:47.820";"2";"0";"FINISHED";"LEFT";"success";"683";"0";"2014-10-01 10:47:45.867";"1";;;;;;;;;;
"chadwick123";"1994";;"Windows 7";"Rachel's Experiment (SCIAT)";"1.0";"1";"1";"1";"1";"2";"2";"2014-10-01 10:46:53.148";"2014-10-01 10:55:02.820";"1";"1";;;;;"1";"0";"1";"9";"8";"module.GoNoGopractice.exec-4919.GoNoGo_Practice";;;;;;;;;;;;;;;;;;;;;;;;;;;;;;;;;;;;;;;;;;;;;;;;;"1948";"2014-10-01 10:47:51.039";"30";"0";"FINISHED";"LEFT";"failure";"456";"1";"2014-10-01 10:47:49.085";"3";;;;;;;;;;
"chadwick123";"1994";;"Windows 7";"Rachel's Experiment (SCIAT)";"1.0";"1";"1";"1";"1";"2";"2";"2014-10-01 10:46:53.148";"2014-10-01 10:55:02.820";"1";"1";;;;;"1";"0";"1";"10";"9";"module.GoNoGopractice.exec-4919.GoNoGo_Practice";;;;;;;;;;;;;;;;;;;;;;;;;;;;;;;;;;;;;;;;;;;;;;;;;"1947";"2014-10-01 10:47:54.257";"6";"1";"FINISHED";"RIGHT";"failure";"709";"1";"2014-10-01 10:47:52.304";"1";;;;;;;;;;
"chadwick123";"1994";;"Windows 7";"Rachel's Experiment (SCIAT)";"1.0";"1";"1";"1";"1";"2";"2";"2014-10-01 10:46:53.148";"2014-10-01 10:55:02.820";"1";"1";;;;;"1";"0";"1";"11";"10";"module.GoNoGopractice.exec-4919.GoNoGo_Practice";;;;;;;;;;;;;;;;;;;;;;;;;;;;;;;;;;;;;;;;;;;;;;;;;"1947";"2014-10-01 10:47:57.476";"34";"0";"FINISHED";"NONE";"failure";"0";"0";"2014-10-01 10:47:55.523";"3";;;;;;;;;;
"chadwick123";"1994";;"Windows 7";"Rachel's Experiment (SCIAT)";"1.0";"1";"1";"1";"1";"2";"2";"2014-10-01 10:46:53.148";"2014-10-01 10:55:02.820";"1";"1";;;;;"1";"0";"1";"12";"11";"module.GoNoGopractice.exec-4919.GoNoGo_Practice";;;;;;;;;;;;;;;;;;;;;;;;;;;;;;;;;;;;;;;;;;;;;;;;;"1947";"2014-10-01 10:48:00.695";"23";"1";"FINISHED";"RIGHT";"success";"399";"0";"2014-10-01 10:47:58.742";"3";;;;;;;;;;
"chadwick123";"1994";;"Windows 7";"Rachel's Experiment (SCIAT)";"1.0";"1";"1";"1";"1";"2";"2";"2014-10-01 10:46:53.148";"2014-10-01 10:55:02.820";"1";"1";;;;;"1";"0";"1";"13";"12";"module.GoNoGopractice.exec-4919.GoNoGo_Practice";;;;;;;;;;;;;;;;;;;;;;;;;;;;;;;;;;;;;;;;;;;;;;;;;"1947";"2014-10-01 10:48:03.914";"13";"0";"FINISHED";"LEFT";"failure";"388";"1";"2014-10-01 10:48:01.960";"2";;;;;;;;;;
"chadwick123";"1994";;"Windows 7";"Rachel's Experiment (SCIAT)";"1.0";"1";"1";"1";"1";"2";"2";"2014-10-01 10:46:53.148";"2014-10-01 10:55:02.820";"1";"1";;;;;"1";"0";"1";"14";"13";"module.GoNoGopractice.exec-4919.GoNoGo_Practice";;;;;;;;;;;;;;;;;;;;;;;;;;;;;;;;;;;;;;;;;;;;;;;;;"1948";"2014-10-01 10:48:07.132";"3";"1";"FINISHED";"RIGHT";"success";"498";"0";"2014-10-01 10:48:05.179";"1";;;;;;;;;;
"chadwick123";"1994";;"Windows 7";"Rachel's Experiment (SCIAT)";"1.0";"1";"1";"1";"1";"2";"2";"2014-10-01 10:46:53.148";"2014-10-01 10:55:02.820";"1";"1";;;;;"1";"0";"1";"15";"14";"module.GoNoGopractice.exec-4919.GoNoGo_Practice";;;;;;;;;;;;;;;;;;;;;;;;;;;;;;;;;;;;;;;;;;;;;;;;;"1947";"2014-10-01 10:48:10.351";"27";"1";"FINISHED";"RIGHT";"failure";"479";"1";"2014-10-01 10:48:08.398";"3";;;;;;;;;;
"chadwick123";"1994";;"Windows 7";"Rachel's Experiment (SCIAT)";"1.0";"1";"1";"1";"1";"2";"2";"2014-10-01 10:46:53.148";"2014-10-01 10:55:02.820";"1";"1";;;;;"1";"0";"1";"16";"15";"module.training_block1.exec-1706.GoNoGo1";"1244";"2014-10-01 10:48:24.320";"ST_failedStop";"5";"0";"FINISHED";"LEFT";"failure";"398";"1";"2014-10-01 10:48:23.070";"1";;;;;;;;;;;;;;;;;;;;;;;;;;;;;;;;;;;;;;;;;;;;;;;;;;;;;;;;;
"chadwick123";"1994";;"Windows 7";"Rachel's Experiment (SCIAT)";"1.0";"1";"1";"1";"1";"2";"2";"2014-10-01 10:46:53.148";"2014-10-01 10:55:02.820";"1";"1";;;;;"1";"0";"1";"17";"16";"module.training_block1.exec-1706.GoNoGo1";"1248";"2014-10-01 10:48:26.835";"NST_correctLoc";"18";"1";"FINISHED";"RIGHT";"success";"862";"0";"2014-10-01 10:48:25.585";"3";;;;;;;;;;;;;;;;;;;;;;;;;;;;;;;;;;;;;;;;;;;;;;;;;;;;;;;;;
"chadwick123";"1994";;"Windows 7";"Rachel's Experiment (SCIAT)";"1.0";"1";"1";"1";"1";"2";"2";"2014-10-01 10:46:53.148";"2014-10-01 10:55:02.820";"1";"1";;;;;"1";"0";"1";"18";"17";"module.training_block1.exec-1706.GoNoGo1";"1248";"2014-10-01 10:48:29.351";"NST_correctLoc";"34";"0";"FINISHED";"LEFT";"success";"290";"0";"2014-10-01 10:48:28.101";"3";;;;;;;;;;;;;;;;;;;;;;;;;;;;;;;;;;;;;;;;;;;;;;;;;;;;;;;;;
"chadwick123";"1994";;"Windows 7";"Rachel's Experiment (SCIAT)";"1.0";"1";"1";"1";"1";"2";"2";"2014-10-01 10:46:53.148";"2014-10-01 10:55:02.820";"1";"1";;;;;"1";"0";"1";"19";"18";"module.training_block1.exec-1706.GoNoGo1";"1244";"2014-10-01 10:48:31.867";"ST_failedStop";"1";"0";"FINISHED";"LEFT";"failure";"363";"1";"2014-10-01 10:48:30.617";"1";;;;;;;;;;;;;;;;;;;;;;;;;;;;;;;;;;;;;;;;;;;;;;;;;;;;;;;;;
"chadwick123";"1994";;"Windows 7";"Rachel's Experiment (SCIAT)";"1.0";"1";"1";"1";"1";"2";"2";"2014-10-01 10:46:53.148";"2014-10-01 10:55:02.820";"1";"1";;;;;"1";"0";"1";"20";"19";"module.training_block1.exec-1706.GoNoGo1";"1244";"2014-10-01 10:48:34.382";"ST_failedStop";"8";"1";"FINISHED";"RIGHT";"failure";"296";"1";"2014-10-01 10:48:33.132";"1";;;;;;;;;;;;;;;;;;;;;;;;;;;;;;;;;;;;;;;;;;;;;;;;;;;;;;;;;
"chadwick123";"1994";;"Windows 7";"Rachel's Experiment (SCIAT)";"1.0";"1";"1";"1";"1";"2";"2";"2014-10-01 10:46:53.148";"2014-10-01 10:55:02.820";"1";"1";;;;;"1";"0";"1";"21";"20";"module.training_block1.exec-1706.GoNoGo1";"1245";"2014-10-01 10:48:36.898";"ST_failedStop";"33";"1";"FINISHED";"RIGHT";"failure";"300";"1";"2014-10-01 10:48:35.648";"3";;;;;;;;;;;;;;;;;;;;;;;;;;;;;;;;;;;;;;;;;;;;;;;;;;;;;;;;;
"chadwick123";"1994";;"Windows 7";"Rachel's Experiment (SCIAT)";"1.0";"1";"1";"1";"1";"2";"2";"2014-10-01 10:46:53.148";"2014-10-01 10:55:02.820";"1";"1";;;;;"1";"0";"1";"22";"21";"module.training_block1.exec-1706.GoNoGo1";"1248";"2014-10-01 10:48:39.414";"ST_failedStop";"6";"1";"FINISHED";"RIGHT";"failure";"324";"1";"2014-10-01 10:48:38.164";"1";;;;;;;;;;;;;;;;;;;;;;;;;;;;;;;;;;;;;;;;;;;;;;;;;;;;;;;;;
"chadwick123";"1994";;"Windows 7";"Rachel's Experiment (SCIAT)";"1.0";"1";"1";"1";"1";"2";"2";"2014-10-01 10:46:53.148";"2014-10-01 10:55:02.820";"1";"1";;;;;"1";"0";"1";"23";"22";"module.training_block1.exec-1706.GoNoGo1";"1244";"2014-10-01 10:48:41.929";"ST_failedStop";"31";"0";"FINISHED";"LEFT";"failure";"349";"1";"2014-10-01 10:48:40.679";"3";;;;;;;;;;;;;;;;;;;;;;;;;;;;;;;;;;;;;;;;;;;;;;;;;;;;;;;;;
"chadwick123";"1994";;"Windows 7";"Rachel's Experiment (SCIAT)";"1.0";"1";"1";"1";"1";"2";"2";"2014-10-01 10:46:53.148";"2014-10-01 10:55:02.820";"1";"1";;;;;"1";"0";"1";"24";"23";"module.training_block1.exec-1706.GoNoGo1";"1245";"2014-10-01 10:48:44.445";"NST_correctLoc";"9";"1";"FINISHED";"RIGHT";"success";"313";"0";"2014-10-01 10:48:43.195";"2";;;;;;;;;;;;;;;;;;;;;;;;;;;;;;;;;;;;;;;;;;;;;;;;;;;;;;;;;
"chadwick123";"1994";;"Windows 7";"Rachel's Experiment (SCIAT)";"1.0";"1";"1";"1";"1";"2";"2";"2014-10-01 10:46:53.148";"2014-10-01 10:55:02.820";"1";"1";;;;;"1";"0";"1";"25";"24";"module.training_block1.exec-1706.GoNoGo1";"1244";"2014-10-01 10:48:46.960";"ST_failedStop";"4";"1";"FINISHED";"RIGHT";"failure";"373";"1";"2014-10-01 10:48:45.710";"1";;;;;;;;;;;;;;;;;;;;;;;;;;;;;;;;;;;;;;;;;;;;;;;;;;;;;;;;;
"chadwick123";"1994";;"Windows 7";"Rachel's Experiment (SCIAT)";"1.0";"1";"1";"1";"1";"2";"2";"2014-10-01 10:46:53.148";"2014-10-01 10:55:02.820";"1";"1";;;;;"1";"0";"1";"26";"25";"module.training_block1.exec-1706.GoNoGo1";"1248";"2014-10-01 10:48:49.476";"ST_failedStop";"3";"0";"FINISHED";"LEFT";"failure";"333";"1";"2014-10-01 10:48:48.226";"1";;;;;;;;;;;;;;;;;;;;;;;;;;;;;;;;;;;;;;;;;;;;;;;;;;;;;;;;;
"chadwick123";"1994";;"Windows 7";"Rachel's Experiment (SCIAT)";"1.0";"1";"1";"1";"1";"2";"2";"2014-10-01 10:46:53.148";"2014-10-01 10:55:02.820";"1";"1";;;;;"1";"0";"1";"27";"26";"module.training_block1.exec-1706.GoNoGo1";"1245";"2014-10-01 10:48:51.992";"ST_failedStop";"28";"1";"FINISHED";"RIGHT";"failure";"302";"1";"2014-10-01 10:48:50.742";"3";;;;;;;;;;;;;;;;;;;;;;;;;;;;;;;;;;;;;;;;;;;;;;;;;;;;;;;;;
"chadwick123";"1994";;"Windows 7";"Rachel's Experiment (SCIAT)";"1.0";"1";"1";"1";"1";"2";"2";"2014-10-01 10:46:53.148";"2014-10-01 10:55:02.820";"1";"1";;;;;"1";"0";"1";"28";"27";"module.training_block1.exec-1706.GoNoGo1";"1248";"2014-10-01 10:48:54.507";"NST_correctLoc";"23";"0";"FINISHED";"LEFT";"success";"254";"0";"2014-10-01 10:48:53.257";"3";;;;;;;;;;;;;;;;;;;;;;;;;;;;;;;;;;;;;;;;;;;;;;;;;;;;;;;;;
"chadwick123";"1994";;"Windows 7";"Rachel's Experiment (SCIAT)";"1.0";"1";"1";"1";"1";"2";"2";"2014-10-01 10:46:53.148";"2014-10-01 10:55:02.820";"1";"1";;;;;"1";"0";"1";"29";"28";"module.training_block1.exec-1706.GoNoGo1";"1244";"2014-10-01 10:48:57.023";"NST_correctLoc";"22";"0";"FINISHED";"LEFT";"success";"294";"0";"2014-10-01 10:48:55.773";"3";;;;;;;;;;;;;;;;;;;;;;;;;;;;;;;;;;;;;;;;;;;;;;;;;;;;;;;;;
"chadwick123";"1994";;"Windows 7";"Rachel's Experiment (SCIAT)";"1.0";"1";"1";"1";"1";"2";"2";"2014-10-01 10:46:53.148";"2014-10-01 10:55:02.820";"1";"1";;;;;"1";"0";"1";"30";"29";"module.training_block1.exec-1706.GoNoGo1";"1248";"2014-10-01 10:48:59.539";"ST_failedStop";"2";"0";"FINISHED";"LEFT";"failure";"342";"1";"2014-10-01 10:48:58.289";"1";;;;;;;;;;;;;;;;;;;;;;;;;;;;;;;;;;;;;;;;;;;;;;;;;;;;;;;;;
"chadwick123";"1994";;"Windows 7";"Rachel's Experiment (SCIAT)";"1.0";"1";"1";"1";"1";"2";"2";"2014-10-01 10:46:53.148";"2014-10-01 10:55:02.820";"1";"1";;;;;"1";"0";"1";"31";"30";"module.training_block1.exec-1706.GoNoGo1";"1243";"2014-10-01 10:49:02.054";"ST_failedStop";"32";"1";"FINISHED";"RIGHT";"failure";"342";"1";"2014-10-01 10:49:00.804";"3";;;;;;;;;;;;;;;;;;;;;;;;;;;;;;;;;;;;;;;;;;;;;;;;;;;;;;;;;
"chadwick123";"1994";;"Windows 7";"Rachel's Experiment (SCIAT)";"1.0";"1";"1";"1";"1";"2";"2";"2014-10-01 10:46:53.148";"2014-10-01 10:55:02.820";"1";"1";;;;;"1";"0";"1";"32";"31";"module.training_block1.exec-1706.GoNoGo1";"1244";"2014-10-01 10:49:04.570";"NST_correctLoc";"12";"0";"FINISHED";"LEFT";"success";"371";"0";"2014-10-01 10:49:03.320";"2";;;;;;;;;;;;;;;;;;;;;;;;;;;;;;;;;;;;;;;;;;;;;;;;;;;;;;;;;
"chadwick123";"1994";;"Windows 7";"Rachel's Experiment (SCIAT)";"1.0";"1";"1";"1";"1";"2";"2";"2014-10-01 10:46:53.148";"2014-10-01 10:55:02.820";"1";"1";;;;;"1";"0";"1";"33";"32";"module.training_block1.exec-1706.GoNoGo1";"1248";"2014-10-01 10:49:07.085";"NST_correctLoc";"13";"0";"FINISHED";"LEFT";"success";"315";"0";"2014-10-01 10:49:05.835";"2";;;;;;;;;;;;;;;;;;;;;;;;;;;;;;;;;;;;;;;;;;;;;;;;;;;;;;;;;
"chadwick123";"1994";;"Windows 7";"Rachel's Experiment (SCIAT)";"1.0";"1";"1";"1";"1";"2";"2";"2014-10-01 10:46:53.148";"2014-10-01 10:55:02.820";"1";"1";;;;;"1";"0";"1";"34";"33";"module.training_block1.exec-1706.GoNoGo1";"1244";"2014-10-01 10:49:09.601";"NST_correctLoc";"11";"0";"FINISHED";"LEFT";"success";"332";"0";"2014-10-01 10:49:08.351";"2";;;;;;;;;;;;;;;;;;;;;;;;;;;;;;;;;;;;;;;;;;;;;;;;;;;;;;;;;
"chadwick123";"1994";;"Windows 7";"Rachel's Experiment (SCIAT)";"1.0";"1";"1";"1";"1";"2";"2";"2014-10-01 10:46:53.148";"2014-10-01 10:55:02.820";"1";"1";;;;;"1";"0";"1";"35";"34";"module.training_block1.exec-1706.GoNoGo1";"1245";"2014-10-01 10:49:12.117";"NST_correctLoc";"19";"1";"FINISHED";"RIGHT";"success";"360";"0";"2014-10-01 10:49:10.867";"3";;;;;;;;;;;;;;;;;;;;;;;;;;;;;;;;;;;;;;;;;;;;;;;;;;;;;;;;;
"chadwick123";"1994";;"Windows 7";"Rachel's Experiment (SCIAT)";"1.0";"1";"1";"1";"1";"2";"2";"2014-10-01 10:46:53.148";"2014-10-01 10:55:02.820";"1";"1";;;;;"1";"0";"1";"36";"35";"module.training_block1.exec-1706.GoNoGo1";"1245";"2014-10-01 10:49:14.632";"NST_correctLoc";"25";"1";"FINISHED";"RIGHT";"success";"325";"0";"2014-10-01 10:49:13.382";"3";;;;;;;;;;;;;;;;;;;;;;;;;;;;;;;;;;;;;;;;;;;;;;;;;;;;;;;;;
"chadwick123";"1994";;"Windows 7";"Rachel's Experiment (SCIAT)";"1.0";"1";"1";"1";"1";"2";"2";"2014-10-01 10:46:53.148";"2014-10-01 10:55:02.820";"1";"1";;;;;"1";"0";"1";"37";"36";"module.training_block1.exec-1706.GoNoGo1";"1245";"2014-10-01 10:49:17.148";"ST_failedStop";"0";"1";"FINISHED";"RIGHT";"failure";"377";"1";"2014-10-01 10:49:15.898";"1";;;;;;;;;;;;;;;;;;;;;;;;;;;;;;;;;;;;;;;;;;;;;;;;;;;;;;;;;
"chadwick123";"1994";;"Windows 7";"Rachel's Experiment (SCIAT)";"1.0";"1";"1";"1";"1";"2";"2";"2014-10-01 10:46:53.148";"2014-10-01 10:55:02.820";"1";"1";;;;;"1";"0";"1";"38";"37";"module.training_block1.exec-1706.GoNoGo1";"1248";"2014-10-01 10:49:19.664";"NST_correctLoc";"14";"1";"FINISHED";"RIGHT";"success";"328";"0";"2014-10-01 10:49:18.414";"2";;;;;;;;;;;;;;;;;;;;;;;;;;;;;;;;;;;;;;;;;;;;;;;;;;;;;;;;;
"chadwick123";"1994";;"Windows 7";"Rachel's Experiment (SCIAT)";"1.0";"1";"1";"1";"1";"2";"2";"2014-10-01 10:46:53.148";"2014-10-01 10:55:02.820";"1";"1";;;;;"1";"0";"1";"39";"38";"module.training_block1.exec-1706.GoNoGo1";"1245";"2014-10-01 10:49:22.179";"NST_correctLoc";"16";"0";"FINISHED";"LEFT";"success";"465";"0";"2014-10-01 10:49:20.929";"2";;;;;;;;;;;;;;;;;;;;;;;;;;;;;;;;;;;;;;;;;;;;;;;;;;;;;;;;;
"chadwick123";"1994";;"Windows 7";"Rachel's Experiment (SCIAT)";"1.0";"1";"1";"1";"1";"2";"2";"2014-10-01 10:46:53.148";"2014-10-01 10:55:02.820";"1";"1";;;;;"1";"0";"1";"40";"39";"module.training_block1.exec-1706.GoNoGo1";"1245";"2014-10-01 10:49:24.695";"ST_failedStop";"35";"0";"FINISHED";"LEFT";"failure";"326";"1";"2014-10-01 10:49:23.445";"3";;;;;;;;;;;;;;;;;;;;;;;;;;;;;;;;;;;;;;;;;;;;;;;;;;;;;;;;;
"chadwick123";"1994";;"Windows 7";"Rachel's Experiment (SCIAT)";"1.0";"1";"1";"1";"1";"2";"2";"2014-10-01 10:46:53.148";"2014-10-01 10:55:02.820";"1";"1";;;;;"1";"0";"1";"41";"40";"module.training_block1.exec-1706.GoNoGo1";"1244";"2014-10-01 10:49:27.210";"NST_correctLoc";"20";"0";"FINISHED";"LEFT";"success";"234";"0";"2014-10-01 10:49:25.960";"3";;;;;;;;;;;;;;;;;;;;;;;;;;;;;;;;;;;;;;;;;;;;;;;;;;;;;;;;;
"chadwick123";"1994";;"Windows 7";"Rachel's Experiment (SCIAT)";"1.0";"1";"1";"1";"1";"2";"2";"2014-10-01 10:46:53.148";"2014-10-01 10:55:02.820";"1";"1";;;;;"1";"0";"1";"42";"41";"module.training_block1.exec-1706.GoNoGo1";"1248";"2014-10-01 10:49:29.726";"NST_correctLoc";"30";"0";"FINISHED";"LEFT";"success";"322";"0";"2014-10-01 10:49:28.476";"3";;;;;;;;;;;;;;;;;;;;;;;;;;;;;;;;;;;;;;;;;;;;;;;;;;;;;;;;;
"chadwick123";"1994";;"Windows 7";"Rachel's Experiment (SCIAT)";"1.0";"1";"1";"1";"1";"2";"2";"2014-10-01 10:46:53.148";"2014-10-01 10:55:02.820";"1";"1";;;;;"1";"0";"1";"43";"42";"module.training_block1.exec-1706.GoNoGo1";"1244";"2014-10-01 10:49:32.242";"ST_failedStop";"29";"0";"FINISHED";"LEFT";"failure";"290";"1";"2014-10-01 10:49:30.992";"3";;;;;;;;;;;;;;;;;;;;;;;;;;;;;;;;;;;;;;;;;;;;;;;;;;;;;;;;;
"chadwick123";"1994";;"Windows 7";"Rachel's Experiment (SCIAT)";"1.0";"1";"1";"1";"1";"2";"2";"2014-10-01 10:46:53.148";"2014-10-01 10:55:02.820";"1";"1";;;;;"1";"0";"1";"44";"43";"module.training_block1.exec-1706.GoNoGo1";"1244";"2014-10-01 10:49:34.757";"NST_correctLoc";"17";"0";"FINISHED";"LEFT";"success";"263";"0";"2014-10-01 10:49:33.507";"2";;;;;;;;;;;;;;;;;;;;;;;;;;;;;;;;;;;;;;;;;;;;;;;;;;;;;;;;;
"chadwick123";"1994";;"Windows 7";"Rachel's Experiment (SCIAT)";"1.0";"1";"1";"1";"1";"2";"2";"2014-10-01 10:46:53.148";"2014-10-01 10:55:02.820";"1";"1";;;;;"1";"0";"1";"45";"44";"module.training_block1.exec-1706.GoNoGo1";"1244";"2014-10-01 10:49:37.273";"NST_correctLoc";"15";"0";"FINISHED";"LEFT";"success";"243";"0";"2014-10-01 10:49:36.023";"2";;;;;;;;;;;;;;;;;;;;;;;;;;;;;;;;;;;;;;;;;;;;;;;;;;;;;;;;;
"chadwick123";"1994";;"Windows 7";"Rachel's Experiment (SCIAT)";"1.0";"1";"1";"1";"1";"2";"2";"2014-10-01 10:46:53.148";"2014-10-01 10:55:02.820";"1";"1";;;;;"1";"0";"1";"46";"45";"module.training_block1.exec-1706.GoNoGo1";"1245";"2014-10-01 10:49:39.789";"NST_correctLoc";"24";"0";"FINISHED";"LEFT";"success";"272";"0";"2014-10-01 10:49:38.539";"3";;;;;;;;;;;;;;;;;;;;;;;;;;;;;;;;;;;;;;;;;;;;;;;;;;;;;;;;;
"chadwick123";"1994";;"Windows 7";"Rachel's Experiment (SCIAT)";"1.0";"1";"1";"1";"1";"2";"2";"2014-10-01 10:46:53.148";"2014-10-01 10:55:02.820";"1";"1";;;;;"1";"0";"1";"47";"46";"module.training_block1.exec-1706.GoNoGo1";"1248";"2014-10-01 10:49:42.304";"ST_failedStop";"27";"1";"FINISHED";"RIGHT";"failure";"319";"1";"2014-10-01 10:49:41.054";"3";;;;;;;;;;;;;;;;;;;;;;;;;;;;;;;;;;;;;;;;;;;;;;;;;;;;;;;;;
"chadwick123";"1994";;"Windows 7";"Rachel's Experiment (SCIAT)";"1.0";"1";"1";"1";"1";"2";"2";"2014-10-01 10:46:53.148";"2014-10-01 10:55:02.820";"1";"1";;;;;"1";"0";"1";"48";"47";"module.training_block1.exec-1706.GoNoGo1";"1248";"2014-10-01 10:49:44.820";"ST_failedStop";"21";"0";"FINISHED";"LEFT";"failure";"267";"1";"2014-10-01 10:49:43.570";"3";;;;;;;;;;;;;;;;;;;;;;;;;;;;;;;;;;;;;;;;;;;;;;;;;;;;;;;;;
"chadwick123";"1994";;"Windows 7";"Rachel's Experiment (SCIAT)";"1.0";"1";"1";"1";"1";"2";"2";"2014-10-01 10:46:53.148";"2014-10-01 10:55:02.820";"1";"1";;;;;"1";"0";"1";"49";"48";"module.training_block1.exec-1706.GoNoGo1";"1248";"2014-10-01 10:49:47.335";"ST_failedStop";"26";"0";"FINISHED";"LEFT";"failure";"344";"1";"2014-10-01 10:49:46.085";"3";;;;;;;;;;;;;;;;;;;;;;;;;;;;;;;;;;;;;;;;;;;;;;;;;;;;;;;;;
"chadwick123";"1994";;"Windows 7";"Rachel's Experiment (SCIAT)";"1.0";"1";"1";"1";"1";"2";"2";"2014-10-01 10:46:53.148";"2014-10-01 10:55:02.820";"1";"1";;;;;"1";"0";"1";"50";"49";"module.training_block1.exec-1706.GoNoGo1";"1244";"2014-10-01 10:49:49.851";"ST_failedStop";"7";"1";"FINISHED";"RIGHT";"failure";"328";"1";"2014-10-01 10:49:48.601";"1";;;;;;;;;;;;;;;;;;;;;;;;;;;;;;;;;;;;;;;;;;;;;;;;;;;;;;;;;
"chadwick123";"1994";;"Windows 7";"Rachel's Experiment (SCIAT)";"1.0";"1";"1";"1";"1";"2";"2";"2014-10-01 10:46:53.148";"2014-10-01 10:55:02.820";"1";"1";;;;;"1";"0";"1";"51";"50";"module.training_block1.exec-1706.GoNoGo1";"1244";"2014-10-01 10:49:52.367";"NST_correctLoc";"10";"0";"FINISHED";"LEFT";"success";"221";"0";"2014-10-01 10:49:51.117";"2";;;;;;;;;;;;;;;;;;;;;;;;;;;;;;;;;;;;;;;;;;;;;;;;;;;;;;;;;
"chadwick123";"1994";;"Windows 7";"Rachel's Experiment (SCIAT)";"1.0";"1";"1";"1";"1";"2";"2";"2014-10-01 10:46:53.148";"2014-10-01 10:55:02.820";"1";"1";;;;;"1";"0";"1";"52";"51";"module.training_block2.exec-5627.GoNoGo2";;;;;;;;;;;;;"1248";"2014-10-01 10:50:03.148";"ST_failedStop";"1";"1";"FINISHED";"RIGHT";"failure";"355";"1";"2014-10-01 10:50:01.898";"1";;;;;;;;;;;;;;;;;;;;;;;;;;;;;;;;;;;;;;;;;;;;;
"chadwick123";"1994";;"Windows 7";"Rachel's Experiment (SCIAT)";"1.0";"1";"1";"1";"1";"2";"2";"2014-10-01 10:46:53.148";"2014-10-01 10:55:02.820";"1";"1";;;;;"1";"0";"1";"53";"52";"module.training_block2.exec-5627.GoNoGo2";;;;;;;;;;;;;"1248";"2014-10-01 10:50:05.664";"NST_correctLoc";"13";"0";"FINISHED";"LEFT";"success";"711";"0";"2014-10-01 10:50:04.414";"2";;;;;;;;;;;;;;;;;;;;;;;;;;;;;;;;;;;;;;;;;;;;;
"chadwick123";"1994";;"Windows 7";"Rachel's Experiment (SCIAT)";"1.0";"1";"1";"1";"1";"2";"2";"2014-10-01 10:46:53.148";"2014-10-01 10:55:02.820";"1";"1";;;;;"1";"0";"1";"54";"53";"module.training_block2.exec-5627.GoNoGo2";;;;;;;;;;;;;"1248";"2014-10-01 10:50:08.195";"ST_failedStop";"2";"1";"FINISHED";"RIGHT";"failure";"284";"1";"2014-10-01 10:50:06.945";"1";;;;;;;;;;;;;;;;;;;;;;;;;;;;;;;;;;;;;;;;;;;;;
"chadwick123";"1994";;"Windows 7";"Rachel's Experiment (SCIAT)";"1.0";"1";"1";"1";"1";"2";"2";"2014-10-01 10:46:53.148";"2014-10-01 10:55:02.820";"1";"1";;;;;"1";"0";"1";"55";"54";"module.training_block2.exec-5627.GoNoGo2";;;;;;;;;;;;;"1248";"2014-10-01 10:50:10.710";"NST_correctLoc";"25";"0";"FINISHED";"LEFT";"success";"296";"0";"2014-10-01 10:50:09.460";"3";;;;;;;;;;;;;;;;;;;;;;;;;;;;;;;;;;;;;;;;;;;;;
"chadwick123";"1994";;"Windows 7";"Rachel's Experiment (SCIAT)";"1.0";"1";"1";"1";"1";"2";"2";"2014-10-01 10:46:53.148";"2014-10-01 10:55:02.820";"1";"1";;;;;"1";"0";"1";"56";"55";"module.training_block2.exec-5627.GoNoGo2";;;;;;;;;;;;;"1248";"2014-10-01 10:50:13.226";"NST_correctLoc";"9";"0";"FINISHED";"LEFT";"success";"364";"0";"2014-10-01 10:50:11.976";"2";;;;;;;;;;;;;;;;;;;;;;;;;;;;;;;;;;;;;;;;;;;;;
"chadwick123";"1994";;"Windows 7";"Rachel's Experiment (SCIAT)";"1.0";"1";"1";"1";"1";"2";"2";"2014-10-01 10:46:53.148";"2014-10-01 10:55:02.820";"1";"1";;;;;"1";"0";"1";"57";"56";"module.training_block2.exec-5627.GoNoGo2";;;;;;;;;;;;;"1248";"2014-10-01 10:50:15.742";"ST_failedStop";"5";"1";"FINISHED";"RIGHT";"failure";"360";"1";"2014-10-01 10:50:14.492";"1";;;;;;;;;;;;;;;;;;;;;;;;;;;;;;;;;;;;;;;;;;;;;
"chadwick123";"1994";;"Windows 7";"Rachel's Experiment (SCIAT)";"1.0";"1";"1";"1";"1";"2";"2";"2014-10-01 10:46:53.148";"2014-10-01 10:55:02.820";"1";"1";;;;;"1";"0";"1";"58";"57";"module.training_block2.exec-5627.GoNoGo2";;;;;;;;;;;;;"1248";"2014-10-01 10:50:18.257";"ST_failedStop";"4";"1";"FINISHED";"RIGHT";"failure";"365";"1";"2014-10-01 10:50:17.007";"1";;;;;;;;;;;;;;;;;;;;;;;;;;;;;;;;;;;;;;;;;;;;;
"chadwick123";"1994";;"Windows 7";"Rachel's Experiment (SCIAT)";"1.0";"1";"1";"1";"1";"2";"2";"2014-10-01 10:46:53.148";"2014-10-01 10:55:02.820";"1";"1";;;;;"1";"0";"1";"59";"58";"module.training_block2.exec-5627.GoNoGo2";;;;;;;;;;;;;"1248";"2014-10-01 10:50:20.773";"ST_failedStop";"0";"0";"FINISHED";"LEFT";"failure";"433";"1";"2014-10-01 10:50:19.523";"1";;;;;;;;;;;;;;;;;;;;;;;;;;;;;;;;;;;;;;;;;;;;;
"chadwick123";"1994";;"Windows 7";"Rachel's Experiment (SCIAT)";"1.0";"1";"1";"1";"1";"2";"2";"2014-10-01 10:46:53.148";"2014-10-01 10:55:02.820";"1";"1";;;;;"1";"0";"1";"60";"59";"module.training_block2.exec-5627.GoNoGo2";;;;;;;;;;;;;"1248";"2014-10-01 10:50:23.289";"NST_correctLoc";"15";"0";"FINISHED";"LEFT";"success";"341";"0";"2014-10-01 10:50:22.039";"2";;;;;;;;;;;;;;;;;;;;;;;;;;;;;;;;;;;;;;;;;;;;;
"chadwick123";"1994";;"Windows 7";"Rachel's Experiment (SCIAT)";"1.0";"1";"1";"1";"1";"2";"2";"2014-10-01 10:46:53.148";"2014-10-01 10:55:02.820";"1";"1";;;;;"1";"0";"1";"61";"60";"module.training_block2.exec-5627.GoNoGo2";;;;;;;;;;;;;"1248";"2014-10-01 10:50:25.804";"NST_correctLoc";"11";"0";"FINISHED";"LEFT";"success";"442";"0";"2014-10-01 10:50:24.554";"2";;;;;;;;;;;;;;;;;;;;;;;;;;;;;;;;;;;;;;;;;;;;;
"chadwick123";"1994";;"Windows 7";"Rachel's Experiment (SCIAT)";"1.0";"1";"1";"1";"1";"2";"2";"2014-10-01 10:46:53.148";"2014-10-01 10:55:02.820";"1";"1";;;;;"1";"0";"1";"62";"61";"module.training_block2.exec-5627.GoNoGo2";;;;;;;;;;;;;"1248";"2014-10-01 10:50:28.320";"NST_correctLoc";"19";"1";"FINISHED";"RIGHT";"success";"342";"0";"2014-10-01 10:50:27.070";"3";;;;;;;;;;;;;;;;;;;;;;;;;;;;;;;;;;;;;;;;;;;;;
"chadwick123";"1994";;"Windows 7";"Rachel's Experiment (SCIAT)";"1.0";"1";"1";"1";"1";"2";"2";"2014-10-01 10:46:53.148";"2014-10-01 10:55:02.820";"1";"1";;;;;"1";"0";"1";"63";"62";"module.training_block2.exec-5627.GoNoGo2";;;;;;;;;;;;;"1248";"2014-10-01 10:50:30.835";"ST_failedStop";"8";"0";"FINISHED";"LEFT";"failure";"354";"1";"2014-10-01 10:50:29.585";"1";;;;;;;;;;;;;;;;;;;;;;;;;;;;;;;;;;;;;;;;;;;;;
"chadwick123";"1994";;"Windows 7";"Rachel's Experiment (SCIAT)";"1.0";"1";"1";"1";"1";"2";"2";"2014-10-01 10:46:53.148";"2014-10-01 10:55:02.820";"1";"1";;;;;"1";"0";"1";"64";"63";"module.training_block2.exec-5627.GoNoGo2";;;;;;;;;;;;;"1248";"2014-10-01 10:50:33.351";"NST_correctLoc";"10";"1";"FINISHED";"RIGHT";"success";"350";"0";"2014-10-01 10:50:32.101";"2";;;;;;;;;;;;;;;;;;;;;;;;;;;;;;;;;;;;;;;;;;;;;
"chadwick123";"1994";;"Windows 7";"Rachel's Experiment (SCIAT)";"1.0";"1";"1";"1";"1";"2";"2";"2014-10-01 10:46:53.148";"2014-10-01 10:55:02.820";"1";"1";;;;;"1";"0";"1";"65";"64";"module.training_block2.exec-5627.GoNoGo2";;;;;;;;;;;;;"1248";"2014-10-01 10:50:35.867";"NST_correctLoc";"28";"0";"FINISHED";"LEFT";"success";"347";"0";"2014-10-01 10:50:34.617";"3";;;;;;;;;;;;;;;;;;;;;;;;;;;;;;;;;;;;;;;;;;;;;
"chadwick123";"1994";;"Windows 7";"Rachel's Experiment (SCIAT)";"1.0";"1";"1";"1";"1";"2";"2";"2014-10-01 10:46:53.148";"2014-10-01 10:55:02.820";"1";"1";;;;;"1";"0";"1";"66";"65";"module.training_block2.exec-5627.GoNoGo2";;;;;;;;;;;;;"1248";"2014-10-01 10:50:38.382";"NST_correctLoc";"32";"0";"FINISHED";"LEFT";"success";"431";"0";"2014-10-01 10:50:37.132";"3";;;;;;;;;;;;;;;;;;;;;;;;;;;;;;;;;;;;;;;;;;;;;
"chadwick123";"1994";;"Windows 7";"Rachel's Experiment (SCIAT)";"1.0";"1";"1";"1";"1";"2";"2";"2014-10-01 10:46:53.148";"2014-10-01 10:55:02.820";"1";"1";;;;;"1";"0";"1";"67";"66";"module.training_block2.exec-5627.GoNoGo2";;;;;;;;;;;;;"1248";"2014-10-01 10:50:40.898";"ST_failedStop";"34";"1";"FINISHED";"RIGHT";"failure";"323";"1";"2014-10-01 10:50:39.648";"3";;;;;;;;;;;;;;;;;;;;;;;;;;;;;;;;;;;;;;;;;;;;;
"chadwick123";"1994";;"Windows 7";"Rachel's Experiment (SCIAT)";"1.0";"1";"1";"1";"1";"2";"2";"2014-10-01 10:46:53.148";"2014-10-01 10:55:02.820";"1";"1";;;;;"1";"0";"1";"68";"67";"module.training_block2.exec-5627.GoNoGo2";;;;;;;;;;;;;"1248";"2014-10-01 10:50:43.414";"NST_correctLoc";"12";"0";"FINISHED";"LEFT";"success";"240";"0";"2014-10-01 10:50:42.164";"2";;;;;;;;;;;;;;;;;;;;;;;;;;;;;;;;;;;;;;;;;;;;;
"chadwick123";"1994";;"Windows 7";"Rachel's Experiment (SCIAT)";"1.0";"1";"1";"1";"1";"2";"2";"2014-10-01 10:46:53.148";"2014-10-01 10:55:02.820";"1";"1";;;;;"1";"0";"1";"69";"68";"module.training_block2.exec-5627.GoNoGo2";;;;;;;;;;;;;"1248";"2014-10-01 10:50:45.929";"ST_failedStop";"27";"1";"FINISHED";"RIGHT";"failure";"300";"1";"2014-10-01 10:50:44.679";"3";;;;;;;;;;;;;;;;;;;;;;;;;;;;;;;;;;;;;;;;;;;;;
"chadwick123";"1994";;"Windows 7";"Rachel's Experiment (SCIAT)";"1.0";"1";"1";"1";"1";"2";"2";"2014-10-01 10:46:53.148";"2014-10-01 10:55:02.820";"1";"1";;;;;"1";"0";"1";"70";"69";"module.training_block2.exec-5627.GoNoGo2";;;;;;;;;;;;;"1248";"2014-10-01 10:50:48.445";"ST_failedStop";"26";"0";"FINISHED";"LEFT";"failure";"800";"1";"2014-10-01 10:50:47.195";"3";;;;;;;;;;;;;;;;;;;;;;;;;;;;;;;;;;;;;;;;;;;;;
"chadwick123";"1994";;"Windows 7";"Rachel's Experiment (SCIAT)";"1.0";"1";"1";"1";"1";"2";"2";"2014-10-01 10:46:53.148";"2014-10-01 10:55:02.820";"1";"1";;;;;"1";"0";"1";"71";"70";"module.training_block2.exec-5627.GoNoGo2";;;;;;;;;;;;;"1248";"2014-10-01 10:50:50.960";"ST_failedStop";"24";"1";"FINISHED";"RIGHT";"failure";"341";"1";"2014-10-01 10:50:49.710";"3";;;;;;;;;;;;;;;;;;;;;;;;;;;;;;;;;;;;;;;;;;;;;
"chadwick123";"1994";;"Windows 7";"Rachel's Experiment (SCIAT)";"1.0";"1";"1";"1";"1";"2";"2";"2014-10-01 10:46:53.148";"2014-10-01 10:55:02.820";"1";"1";;;;;"1";"0";"1";"72";"71";"module.training_block2.exec-5627.GoNoGo2";;;;;;;;;;;;;"1248";"2014-10-01 10:50:53.476";"NST_correctLoc";"17";"0";"FINISHED";"LEFT";"success";"233";"0";"2014-10-01 10:50:52.226";"2";;;;;;;;;;;;;;;;;;;;;;;;;;;;;;;;;;;;;;;;;;;;;
"chadwick123";"1994";;"Windows 7";"Rachel's Experiment (SCIAT)";"1.0";"1";"1";"1";"1";"2";"2";"2014-10-01 10:46:53.148";"2014-10-01 10:55:02.820";"1";"1";;;;;"1";"0";"1";"73";"72";"module.training_block2.exec-5627.GoNoGo2";;;;;;;;;;;;;"1248";"2014-10-01 10:50:55.992";"ST_failedStop";"18";"1";"FINISHED";"RIGHT";"failure";"293";"1";"2014-10-01 10:50:54.742";"3";;;;;;;;;;;;;;;;;;;;;;;;;;;;;;;;;;;;;;;;;;;;;
"chadwick123";"1994";;"Windows 7";"Rachel's Experiment (SCIAT)";"1.0";"1";"1";"1";"1";"2";"2";"2014-10-01 10:46:53.148";"2014-10-01 10:55:02.820";"1";"1";;;;;"1";"0";"1";"74";"73";"module.training_block2.exec-5627.GoNoGo2";;;;;;;;;;;;;"1248";"2014-10-01 10:50:58.507";"NST_correctLoc";"14";"1";"FINISHED";"RIGHT";"success";"273";"0";"2014-10-01 10:50:57.257";"2";;;;;;;;;;;;;;;;;;;;;;;;;;;;;;;;;;;;;;;;;;;;;
"chadwick123";"1994";;"Windows 7";"Rachel's Experiment (SCIAT)";"1.0";"1";"1";"1";"1";"2";"2";"2014-10-01 10:46:53.148";"2014-10-01 10:55:02.820";"1";"1";;;;;"1";"0";"1";"75";"74";"module.training_block2.exec-5627.GoNoGo2";;;;;;;;;;;;;"1248";"2014-10-01 10:51:01.023";"NST_wrongLoc";"22";"1";"FINISHED";"LEFT";"failure";"206";"0";"2014-10-01 10:50:59.773";"3";;;;;;;;;;;;;;;;;;;;;;;;;;;;;;;;;;;;;;;;;;;;;
"chadwick123";"1994";;"Windows 7";"Rachel's Experiment (SCIAT)";"1.0";"1";"1";"1";"1";"2";"2";"2014-10-01 10:46:53.148";"2014-10-01 10:55:02.820";"1";"1";;;;;"1";"0";"1";"76";"75";"module.training_block2.exec-5627.GoNoGo2";;;;;;;;;;;;;"1248";"2014-10-01 10:51:03.539";"NST_correctLoc";"21";"0";"FINISHED";"LEFT";"success";"338";"0";"2014-10-01 10:51:02.289";"3";;;;;;;;;;;;;;;;;;;;;;;;;;;;;;;;;;;;;;;;;;;;;
"chadwick123";"1994";;"Windows 7";"Rachel's Experiment (SCIAT)";"1.0";"1";"1";"1";"1";"2";"2";"2014-10-01 10:46:53.148";"2014-10-01 10:55:02.820";"1";"1";;;;;"1";"0";"1";"77";"76";"module.training_block2.exec-5627.GoNoGo2";;;;;;;;;;;;;"1248";"2014-10-01 10:51:06.054";"NST_correctLoc";"31";"0";"FINISHED";"LEFT";"success";"366";"0";"2014-10-01 10:51:04.804";"3";;;;;;;;;;;;;;;;;;;;;;;;;;;;;;;;;;;;;;;;;;;;;
"chadwick123";"1994";;"Windows 7";"Rachel's Experiment (SCIAT)";"1.0";"1";"1";"1";"1";"2";"2";"2014-10-01 10:46:53.148";"2014-10-01 10:55:02.820";"1";"1";;;;;"1";"0";"1";"78";"77";"module.training_block2.exec-5627.GoNoGo2";;;;;;;;;;;;;"1248";"2014-10-01 10:51:08.570";"NST_correctLoc";"16";"1";"FINISHED";"RIGHT";"success";"291";"0";"2014-10-01 10:51:07.320";"2";;;;;;;;;;;;;;;;;;;;;;;;;;;;;;;;;;;;;;;;;;;;;
"chadwick123";"1994";;"Windows 7";"Rachel's Experiment (SCIAT)";"1.0";"1";"1";"1";"1";"2";"2";"2014-10-01 10:46:53.148";"2014-10-01 10:55:02.820";"1";"1";;;;;"1";"0";"1";"79";"78";"module.training_block2.exec-5627.GoNoGo2";;;;;;;;;;;;;"1248";"2014-10-01 10:51:11.085";"ST_failedStop";"30";"0";"FINISHED";"LEFT";"failure";"383";"1";"2014-10-01 10:51:09.835";"3";;;;;;;;;;;;;;;;;;;;;;;;;;;;;;;;;;;;;;;;;;;;;
"chadwick123";"1994";;"Windows 7";"Rachel's Experiment (SCIAT)";"1.0";"1";"1";"1";"1";"2";"2";"2014-10-01 10:46:53.148";"2014-10-01 10:55:02.820";"1";"1";;;;;"1";"0";"1";"80";"79";"module.training_block2.exec-5627.GoNoGo2";;;;;;;;;;;;;"1248";"2014-10-01 10:51:13.601";"ST_failedStop";"23";"0";"FINISHED";"LEFT";"failure";"411";"1";"2014-10-01 10:51:12.351";"3";;;;;;;;;;;;;;;;;;;;;;;;;;;;;;;;;;;;;;;;;;;;;
"chadwick123";"1994";;"Windows 7";"Rachel's Experiment (SCIAT)";"1.0";"1";"1";"1";"1";"2";"2";"2014-10-01 10:46:53.148";"2014-10-01 10:55:02.820";"1";"1";;;;;"1";"0";"1";"81";"80";"module.training_block2.exec-5627.GoNoGo2";;;;;;;;;;;;;"1248";"2014-10-01 10:51:16.117";"NST_correctLoc";"20";"1";"FINISHED";"RIGHT";"success";"311";"0";"2014-10-01 10:51:14.867";"3";;;;;;;;;;;;;;;;;;;;;;;;;;;;;;;;;;;;;;;;;;;;;
"chadwick123";"1994";;"Windows 7";"Rachel's Experiment (SCIAT)";"1.0";"1";"1";"1";"1";"2";"2";"2014-10-01 10:46:53.148";"2014-10-01 10:55:02.820";"1";"1";;;;;"1";"0";"1";"82";"81";"module.training_block2.exec-5627.GoNoGo2";;;;;;;;;;;;;"1248";"2014-10-01 10:51:18.632";"NST_correctLoc";"35";"1";"FINISHED";"RIGHT";"success";"836";"0";"2014-10-01 10:51:17.382";"3";;;;;;;;;;;;;;;;;;;;;;;;;;;;;;;;;;;;;;;;;;;;;
"chadwick123";"1994";;"Windows 7";"Rachel's Experiment (SCIAT)";"1.0";"1";"1";"1";"1";"2";"2";"2014-10-01 10:46:53.148";"2014-10-01 10:55:02.820";"1";"1";;;;;"1";"0";"1";"83";"82";"module.training_block2.exec-5627.GoNoGo2";;;;;;;;;;;;;"1248";"2014-10-01 10:51:21.148";"ST_failedStop";"6";"1";"FINISHED";"RIGHT";"failure";"384";"1";"2014-10-01 10:51:19.898";"1";;;;;;;;;;;;;;;;;;;;;;;;;;;;;;;;;;;;;;;;;;;;;
"chadwick123";"1994";;"Windows 7";"Rachel's Experiment (SCIAT)";"1.0";"1";"1";"1";"1";"2";"2";"2014-10-01 10:46:53.148";"2014-10-01 10:55:02.820";"1";"1";;;;;"1";"0";"1";"84";"83";"module.training_block2.exec-5627.GoNoGo2";;;;;;;;;;;;;"1248";"2014-10-01 10:51:23.648";"ST_failedStop";"29";"0";"FINISHED";"LEFT";"failure";"292";"1";"2014-10-01 10:51:22.398";"3";;;;;;;;;;;;;;;;;;;;;;;;;;;;;;;;;;;;;;;;;;;;;
"chadwick123";"1994";;"Windows 7";"Rachel's Experiment (SCIAT)";"1.0";"1";"1";"1";"1";"2";"2";"2014-10-01 10:46:53.148";"2014-10-01 10:55:02.820";"1";"1";;;;;"1";"0";"1";"85";"84";"module.training_block2.exec-5627.GoNoGo2";;;;;;;;;;;;;"1248";"2014-10-01 10:51:26.164";"ST_failedStop";"33";"0";"FINISHED";"LEFT";"failure";"320";"1";"2014-10-01 10:51:24.914";"3";;;;;;;;;;;;;;;;;;;;;;;;;;;;;;;;;;;;;;;;;;;;;
"chadwick123";"1994";;"Windows 7";"Rachel's Experiment (SCIAT)";"1.0";"1";"1";"1";"1";"2";"2";"2014-10-01 10:46:53.148";"2014-10-01 10:55:02.820";"1";"1";;;;;"1";"0";"1";"86";"85";"module.training_block2.exec-5627.GoNoGo2";;;;;;;;;;;;;"1248";"2014-10-01 10:51:28.679";"ST_failedStop";"7";"1";"FINISHED";"RIGHT";"failure";"300";"1";"2014-10-01 10:51:27.429";"1";;;;;;;;;;;;;;;;;;;;;;;;;;;;;;;;;;;;;;;;;;;;;
"chadwick123";"1994";;"Windows 7";"Rachel's Experiment (SCIAT)";"1.0";"1";"1";"1";"1";"2";"2";"2014-10-01 10:46:53.148";"2014-10-01 10:55:02.820";"1";"1";;;;;"1";"0";"1";"87";"86";"module.training_block2.exec-5627.GoNoGo2";;;;;;;;;;;;;"1248";"2014-10-01 10:51:31.195";"ST_failedStop";"3";"1";"FINISHED";"RIGHT";"failure";"313";"1";"2014-10-01 10:51:29.945";"1";;;;;;;;;;;;;;;;;;;;;;;;;;;;;;;;;;;;;;;;;;;;;
"chadwick123";"1994";;"Windows 7";"Rachel's Experiment (SCIAT)";"1.0";"1";"1";"1";"1";"2";"2";"2014-10-01 10:46:53.148";"2014-10-01 10:55:02.820";"1";"1";;;;;"1";"0";"1";"88";"87";"module.training_block3.exec-1837.GoNoGo3";;;;;;;;;;;;;;;;;;;;;;;;;"1248";"2014-10-01 10:51:42.132";"ST_failedStop";"8";"0";"FINISHED";"LEFT";"failure";"375";"1";"2014-10-01 10:51:40.882";"1";;;;;;;;;;;;;;;;;;;;;;;;;;;;;;;;;
"chadwick123";"1994";;"Windows 7";"Rachel's Experiment (SCIAT)";"1.0";"1";"1";"1";"1";"2";"2";"2014-10-01 10:46:53.148";"2014-10-01 10:55:02.820";"1";"1";;;;;"1";"0";"1";"89";"88";"module.training_block3.exec-1837.GoNoGo3";;;;;;;;;;;;;;;;;;;;;;;;;"1248";"2014-10-01 10:51:44.648";"ST_failedStop";"19";"0";"FINISHED";"LEFT";"failure";"371";"1";"2014-10-01 10:51:43.398";"3";;;;;;;;;;;;;;;;;;;;;;;;;;;;;;;;;
"chadwick123";"1994";;"Windows 7";"Rachel's Experiment (SCIAT)";"1.0";"1";"1";"1";"1";"2";"2";"2014-10-01 10:46:53.148";"2014-10-01 10:55:02.820";"1";"1";;;;;"1";"0";"1";"90";"89";"module.training_block3.exec-1837.GoNoGo3";;;;;;;;;;;;;;;;;;;;;;;;;"1248";"2014-10-01 10:51:47.164";"NST_correctLoc";"33";"0";"FINISHED";"LEFT";"success";"400";"0";"2014-10-01 10:51:45.914";"3";;;;;;;;;;;;;;;;;;;;;;;;;;;;;;;;;
"chadwick123";"1994";;"Windows 7";"Rachel's Experiment (SCIAT)";"1.0";"1";"1";"1";"1";"2";"2";"2014-10-01 10:46:53.148";"2014-10-01 10:55:02.820";"1";"1";;;;;"1";"0";"1";"91";"90";"module.training_block3.exec-1837.GoNoGo3";;;;;;;;;;;;;;;;;;;;;;;;;"1248";"2014-10-01 10:51:49.679";"NST_correctLoc";"12";"0";"FINISHED";"LEFT";"success";"308";"0";"2014-10-01 10:51:48.429";"2";;;;;;;;;;;;;;;;;;;;;;;;;;;;;;;;;
"chadwick123";"1994";;"Windows 7";"Rachel's Experiment (SCIAT)";"1.0";"1";"1";"1";"1";"2";"2";"2014-10-01 10:46:53.148";"2014-10-01 10:55:02.820";"1";"1";;;;;"1";"0";"1";"92";"91";"module.training_block3.exec-1837.GoNoGo3";;;;;;;;;;;;;;;;;;;;;;;;;"1248";"2014-10-01 10:51:52.195";"NST_correctLoc";"24";"0";"FINISHED";"LEFT";"success";"312";"0";"2014-10-01 10:51:50.945";"3";;;;;;;;;;;;;;;;;;;;;;;;;;;;;;;;;
"chadwick123";"1994";;"Windows 7";"Rachel's Experiment (SCIAT)";"1.0";"1";"1";"1";"1";"2";"2";"2014-10-01 10:46:53.148";"2014-10-01 10:55:02.820";"1";"1";;;;;"1";"0";"1";"93";"92";"module.training_block3.exec-1837.GoNoGo3";;;;;;;;;;;;;;;;;;;;;;;;;"1248";"2014-10-01 10:51:54.710";"NST_correctLoc";"35";"0";"FINISHED";"LEFT";"success";"308";"0";"2014-10-01 10:51:53.460";"3";;;;;;;;;;;;;;;;;;;;;;;;;;;;;;;;;
"chadwick123";"1994";;"Windows 7";"Rachel's Experiment (SCIAT)";"1.0";"1";"1";"1";"1";"2";"2";"2014-10-01 10:46:53.148";"2014-10-01 10:55:02.820";"1";"1";;;;;"1";"0";"1";"94";"93";"module.training_block3.exec-1837.GoNoGo3";;;;;;;;;;;;;;;;;;;;;;;;;"1248";"2014-10-01 10:51:57.226";"ST_failedStop";"18";"1";"FINISHED";"RIGHT";"failure";"625";"1";"2014-10-01 10:51:55.976";"3";;;;;;;;;;;;;;;;;;;;;;;;;;;;;;;;;
"chadwick123";"1994";;"Windows 7";"Rachel's Experiment (SCIAT)";"1.0";"1";"1";"1";"1";"2";"2";"2014-10-01 10:46:53.148";"2014-10-01 10:55:02.820";"1";"1";;;;;"1";"0";"1";"95";"94";"module.training_block3.exec-1837.GoNoGo3";;;;;;;;;;;;;;;;;;;;;;;;;"1248";"2014-10-01 10:51:59.742";"NST_correctLoc";"17";"1";"FINISHED";"RIGHT";"success";"493";"0";"2014-10-01 10:51:58.492";"2";;;;;;;;;;;;;;;;;;;;;;;;;;;;;;;;;
"chadwick123";"1994";;"Windows 7";"Rachel's Experiment (SCIAT)";"1.0";"1";"1";"1";"1";"2";"2";"2014-10-01 10:46:53.148";"2014-10-01 10:55:02.820";"1";"1";;;;;"1";"0";"1";"96";"95";"module.training_block3.exec-1837.GoNoGo3";;;;;;;;;;;;;;;;;;;;;;;;;"1248";"2014-10-01 10:52:02.257";"NST_correctLoc";"14";"1";"FINISHED";"RIGHT";"success";"361";"0";"2014-10-01 10:52:01.007";"2";;;;;;;;;;;;;;;;;;;;;;;;;;;;;;;;;
"chadwick123";"1994";;"Windows 7";"Rachel's Experiment (SCIAT)";"1.0";"1";"1";"1";"1";"2";"2";"2014-10-01 10:46:53.148";"2014-10-01 10:55:02.820";"1";"1";;;;;"1";"0";"1";"97";"96";"module.training_block3.exec-1837.GoNoGo3";;;;;;;;;;;;;;;;;;;;;;;;;"1248";"2014-10-01 10:52:04.773";"ST_failedStop";"6";"1";"FINISHED";"RIGHT";"failure";"446";"1";"2014-10-01 10:52:03.523";"1";;;;;;;;;;;;;;;;;;;;;;;;;;;;;;;;;
"chadwick123";"1994";;"Windows 7";"Rachel's Experiment (SCIAT)";"1.0";"1";"1";"1";"1";"2";"2";"2014-10-01 10:46:53.148";"2014-10-01 10:55:02.820";"1";"1";;;;;"1";"0";"1";"98";"97";"module.training_block3.exec-1837.GoNoGo3";;;;;;;;;;;;;;;;;;;;;;;;;"1248";"2014-10-01 10:52:07.289";"NST_wrongLoc";"10";"0";"FINISHED";"RIGHT";"failure";"330";"0";"2014-10-01 10:52:06.039";"2";;;;;;;;;;;;;;;;;;;;;;;;;;;;;;;;;
"chadwick123";"1994";;"Windows 7";"Rachel's Experiment (SCIAT)";"1.0";"1";"1";"1";"1";"2";"2";"2014-10-01 10:46:53.148";"2014-10-01 10:55:02.820";"1";"1";;;;;"1";"0";"1";"99";"98";"module.training_block3.exec-1837.GoNoGo3";;;;;;;;;;;;;;;;;;;;;;;;;"1248";"2014-10-01 10:52:09.804";"ST_failedStop";"0";"1";"FINISHED";"RIGHT";"failure";"254";"1";"2014-10-01 10:52:08.554";"1";;;;;;;;;;;;;;;;;;;;;;;;;;;;;;;;;
"chadwick123";"1994";;"Windows 7";"Rachel's Experiment (SCIAT)";"1.0";"1";"1";"1";"1";"2";"2";"2014-10-01 10:46:53.148";"2014-10-01 10:55:02.820";"1";"1";;;;;"1";"0";"1";"100";"99";"module.training_block3.exec-1837.GoNoGo3";;;;;;;;;;;;;;;;;;;;;;;;;"1248";"2014-10-01 10:52:12.320";"NST_correctLoc";"9";"0";"FINISHED";"LEFT";"success";"266";"0";"2014-10-01 10:52:11.070";"2";;;;;;;;;;;;;;;;;;;;;;;;;;;;;;;;;
"chadwick123";"1994";;"Windows 7";"Rachel's Experiment (SCIAT)";"1.0";"1";"1";"1";"1";"2";"2";"2014-10-01 10:46:53.148";"2014-10-01 10:55:02.820";"1";"1";;;;;"1";"0";"1";"101";"100";"module.training_block3.exec-1837.GoNoGo3";;;;;;;;;;;;;;;;;;;;;;;;;"1248";"2014-10-01 10:52:14.835";"ST_failedStop";"29";"0";"FINISHED";"LEFT";"failure";"383";"1";"2014-10-01 10:52:13.585";"3";;;;;;;;;;;;;;;;;;;;;;;;;;;;;;;;;
"chadwick123";"1994";;"Windows 7";"Rachel's Experiment (SCIAT)";"1.0";"1";"1";"1";"1";"2";"2";"2014-10-01 10:46:53.148";"2014-10-01 10:55:02.820";"1";"1";;;;;"1";"0";"1";"102";"101";"module.training_block3.exec-1837.GoNoGo3";;;;;;;;;;;;;;;;;;;;;;;;;"1248";"2014-10-01 10:52:17.351";"ST_failedStop";"3";"0";"FINISHED";"RIGHT";"failure";"227";"1";"2014-10-01 10:52:16.101";"1";;;;;;;;;;;;;;;;;;;;;;;;;;;;;;;;;
"chadwick123";"1994";;"Windows 7";"Rachel's Experiment (SCIAT)";"1.0";"1";"1";"1";"1";"2";"2";"2014-10-01 10:46:53.148";"2014-10-01 10:55:02.820";"1";"1";;;;;"1";"0";"1";"103";"102";"module.training_block3.exec-1837.GoNoGo3";;;;;;;;;;;;;;;;;;;;;;;;;"1248";"2014-10-01 10:52:19.867";"ST_failedStop";"7";"1";"FINISHED";"RIGHT";"failure";"303";"1";"2014-10-01 10:52:18.617";"1";;;;;;;;;;;;;;;;;;;;;;;;;;;;;;;;;
"chadwick123";"1994";;"Windows 7";"Rachel's Experiment (SCIAT)";"1.0";"1";"1";"1";"1";"2";"2";"2014-10-01 10:46:53.148";"2014-10-01 10:55:02.820";"1";"1";;;;;"1";"0";"1";"104";"103";"module.training_block3.exec-1837.GoNoGo3";;;;;;;;;;;;;;;;;;;;;;;;;"1248";"2014-10-01 10:52:22.382";"NST_correctLoc";"16";"0";"FINISHED";"LEFT";"success";"340";"0";"2014-10-01 10:52:21.132";"2";;;;;;;;;;;;;;;;;;;;;;;;;;;;;;;;;
"chadwick123";"1994";;"Windows 7";"Rachel's Experiment (SCIAT)";"1.0";"1";"1";"1";"1";"2";"2";"2014-10-01 10:46:53.148";"2014-10-01 10:55:02.820";"1";"1";;;;;"1";"0";"1";"105";"104";"module.training_block3.exec-1837.GoNoGo3";;;;;;;;;;;;;;;;;;;;;;;;;"1248";"2014-10-01 10:52:24.898";"NST_correctLoc";"20";"1";"FINISHED";"RIGHT";"success";"304";"0";"2014-10-01 10:52:23.648";"3";;;;;;;;;;;;;;;;;;;;;;;;;;;;;;;;;
"chadwick123";"1994";;"Windows 7";"Rachel's Experiment (SCIAT)";"1.0";"1";"1";"1";"1";"2";"2";"2014-10-01 10:46:53.148";"2014-10-01 10:55:02.820";"1";"1";;;;;"1";"0";"1";"106";"105";"module.training_block3.exec-1837.GoNoGo3";;;;;;;;;;;;;;;;;;;;;;;;;"1243";"2014-10-01 10:52:27.398";"NST_correctLoc";"15";"0";"FINISHED";"LEFT";"success";"271";"0";"2014-10-01 10:52:26.148";"2";;;;;;;;;;;;;;;;;;;;;;;;;;;;;;;;;
"chadwick123";"1994";;"Windows 7";"Rachel's Experiment (SCIAT)";"1.0";"1";"1";"1";"1";"2";"2";"2014-10-01 10:46:53.148";"2014-10-01 10:55:02.820";"1";"1";;;;;"1";"0";"1";"107";"106";"module.training_block3.exec-1837.GoNoGo3";;;;;;;;;;;;;;;;;;;;;;;;;"1248";"2014-10-01 10:52:29.914";"ST_failedStop";"34";"1";"FINISHED";"RIGHT";"failure";"280";"1";"2014-10-01 10:52:28.664";"3";;;;;;;;;;;;;;;;;;;;;;;;;;;;;;;;;
"chadwick123";"1994";;"Windows 7";"Rachel's Experiment (SCIAT)";"1.0";"1";"1";"1";"1";"2";"2";"2014-10-01 10:46:53.148";"2014-10-01 10:55:02.820";"1";"1";;;;;"1";"0";"1";"108";"107";"module.training_block3.exec-1837.GoNoGo3";;;;;;;;;;;;;;;;;;;;;;;;;"1248";"2014-10-01 10:52:32.429";"ST_failedStop";"2";"0";"FINISHED";"LEFT";"failure";"212";"1";"2014-10-01 10:52:31.179";"1";;;;;;;;;;;;;;;;;;;;;;;;;;;;;;;;;
"chadwick123";"1994";;"Windows 7";"Rachel's Experiment (SCIAT)";"1.0";"1";"1";"1";"1";"2";"2";"2014-10-01 10:46:53.148";"2014-10-01 10:55:02.820";"1";"1";;;;;"1";"0";"1";"109";"108";"module.training_block3.exec-1837.GoNoGo3";;;;;;;;;;;;;;;;;;;;;;;;;"1248";"2014-10-01 10:52:34.945";"NST_miss";"27";"1";"FINISHED";"NONE";"failure";"0";"0";"2014-10-01 10:52:33.695";"3";;;;;;;;;;;;;;;;;;;;;;;;;;;;;;;;;
"chadwick123";"1994";;"Windows 7";"Rachel's Experiment (SCIAT)";"1.0";"1";"1";"1";"1";"2";"2";"2014-10-01 10:46:53.148";"2014-10-01 10:55:02.820";"1";"1";;;;;"1";"0";"1";"110";"109";"module.training_block3.exec-1837.GoNoGo3";;;;;;;;;;;;;;;;;;;;;;;;;"1248";"2014-10-01 10:52:37.460";"ST_failedStop";"4";"0";"FINISHED";"LEFT";"failure";"261";"1";"2014-10-01 10:52:36.210";"1";;;;;;;;;;;;;;;;;;;;;;;;;;;;;;;;;
"chadwick123";"1994";;"Windows 7";"Rachel's Experiment (SCIAT)";"1.0";"1";"1";"1";"1";"2";"2";"2014-10-01 10:46:53.148";"2014-10-01 10:55:02.820";"1";"1";;;;;"1";"0";"1";"111";"110";"module.training_block3.exec-1837.GoNoGo3";;;;;;;;;;;;;;;;;;;;;;;;;"1248";"2014-10-01 10:52:39.960";"ST_failedStop";"5";"0";"FINISHED";"LEFT";"failure";"337";"1";"2014-10-01 10:52:38.710";"1";;;;;;;;;;;;;;;;;;;;;;;;;;;;;;;;;
"chadwick123";"1994";;"Windows 7";"Rachel's Experiment (SCIAT)";"1.0";"1";"1";"1";"1";"2";"2";"2014-10-01 10:46:53.148";"2014-10-01 10:55:02.820";"1";"1";;;;;"1";"0";"1";"112";"111";"module.training_block3.exec-1837.GoNoGo3";;;;;;;;;;;;;;;;;;;;;;;;;"1248";"2014-10-01 10:52:42.460";"NST_correctLoc";"13";"0";"FINISHED";"LEFT";"success";"293";"0";"2014-10-01 10:52:41.210";"2";;;;;;;;;;;;;;;;;;;;;;;;;;;;;;;;;
"chadwick123";"1994";;"Windows 7";"Rachel's Experiment (SCIAT)";"1.0";"1";"1";"1";"1";"2";"2";"2014-10-01 10:46:53.148";"2014-10-01 10:55:02.820";"1";"1";;;;;"1";"0";"1";"113";"112";"module.training_block3.exec-1837.GoNoGo3";;;;;;;;;;;;;;;;;;;;;;;;;"1248";"2014-10-01 10:52:44.960";"ST_failedStop";"25";"0";"FINISHED";"LEFT";"failure";"385";"1";"2014-10-01 10:52:43.710";"3";;;;;;;;;;;;;;;;;;;;;;;;;;;;;;;;;
"chadwick123";"1994";;"Windows 7";"Rachel's Experiment (SCIAT)";"1.0";"1";"1";"1";"1";"2";"2";"2014-10-01 10:46:53.148";"2014-10-01 10:55:02.820";"1";"1";;;;;"1";"0";"1";"114";"113";"module.training_block3.exec-1837.GoNoGo3";;;;;;;;;;;;;;;;;;;;;;;;;"1248";"2014-10-01 10:52:47.460";"NST_correctLoc";"21";"1";"FINISHED";"RIGHT";"success";"341";"0";"2014-10-01 10:52:46.210";"3";;;;;;;;;;;;;;;;;;;;;;;;;;;;;;;;;
"chadwick123";"1994";;"Windows 7";"Rachel's Experiment (SCIAT)";"1.0";"1";"1";"1";"1";"2";"2";"2014-10-01 10:46:53.148";"2014-10-01 10:55:02.820";"1";"1";;;;;"1";"0";"1";"115";"114";"module.training_block3.exec-1837.GoNoGo3";;;;;;;;;;;;;;;;;;;;;;;;;"1248";"2014-10-01 10:52:49.960";"NST_correctLoc";"28";"0";"FINISHED";"LEFT";"success";"337";"0";"2014-10-01 10:52:48.710";"3";;;;;;;;;;;;;;;;;;;;;;;;;;;;;;;;;
"chadwick123";"1994";;"Windows 7";"Rachel's Experiment (SCIAT)";"1.0";"1";"1";"1";"1";"2";"2";"2014-10-01 10:46:53.148";"2014-10-01 10:55:02.820";"1";"1";;;;;"1";"0";"1";"116";"115";"module.training_block3.exec-1837.GoNoGo3";;;;;;;;;;;;;;;;;;;;;;;;;"1248";"2014-10-01 10:52:52.460";"ST_failedStop";"1";"1";"FINISHED";"RIGHT";"failure";"316";"1";"2014-10-01 10:52:51.210";"1";;;;;;;;;;;;;;;;;;;;;;;;;;;;;;;;;
"chadwick123";"1994";;"Windows 7";"Rachel's Experiment (SCIAT)";"1.0";"1";"1";"1";"1";"2";"2";"2014-10-01 10:46:53.148";"2014-10-01 10:55:02.820";"1";"1";;;;;"1";"0";"1";"117";"116";"module.training_block3.exec-1837.GoNoGo3";;;;;;;;;;;;;;;;;;;;;;;;;"1248";"2014-10-01 10:52:54.960";"ST_failedStop";"23";"0";"FINISHED";"LEFT";"failure";"320";"1";"2014-10-01 10:52:53.710";"3";;;;;;;;;;;;;;;;;;;;;;;;;;;;;;;;;
"chadwick123";"1994";;"Windows 7";"Rachel's Experiment (SCIAT)";"1.0";"1";"1";"1";"1";"2";"2";"2014-10-01 10:46:53.148";"2014-10-01 10:55:02.820";"1";"1";;;;;"1";"0";"1";"118";"117";"module.training_block3.exec-1837.GoNoGo3";;;;;;;;;;;;;;;;;;;;;;;;;"1248";"2014-10-01 10:52:57.460";"ST_failedStop";"26";"1";"FINISHED";"RIGHT";"failure";"340";"1";"2014-10-01 10:52:56.210";"3";;;;;;;;;;;;;;;;;;;;;;;;;;;;;;;;;
"chadwick123";"1994";;"Windows 7";"Rachel's Experiment (SCIAT)";"1.0";"1";"1";"1";"1";"2";"2";"2014-10-01 10:46:53.148";"2014-10-01 10:55:02.820";"1";"1";;;;;"1";"0";"1";"119";"118";"module.training_block3.exec-1837.GoNoGo3";;;;;;;;;;;;;;;;;;;;;;;;;"1248";"2014-10-01 10:52:59.960";"ST_failedStop";"32";"1";"FINISHED";"RIGHT";"failure";"376";"1";"2014-10-01 10:52:58.710";"3";;;;;;;;;;;;;;;;;;;;;;;;;;;;;;;;;
"chadwick123";"1994";;"Windows 7";"Rachel's Experiment (SCIAT)";"1.0";"1";"1";"1";"1";"2";"2";"2014-10-01 10:46:53.148";"2014-10-01 10:55:02.820";"1";"1";;;;;"1";"0";"1";"120";"119";"module.training_block3.exec-1837.GoNoGo3";;;;;;;;;;;;;;;;;;;;;;;;;"1248";"2014-10-01 10:53:02.460";"NST_correctLoc";"31";"1";"FINISHED";"RIGHT";"success";"284";"0";"2014-10-01 10:53:01.210";"3";;;;;;;;;;;;;;;;;;;;;;;;;;;;;;;;;
"chadwick123";"1994";;"Windows 7";"Rachel's Experiment (SCIAT)";"1.0";"1";"1";"1";"1";"2";"2";"2014-10-01 10:46:53.148";"2014-10-01 10:55:02.820";"1";"1";;;;;"1";"0";"1";"121";"120";"module.training_block3.exec-1837.GoNoGo3";;;;;;;;;;;;;;;;;;;;;;;;;"1248";"2014-10-01 10:53:04.960";"NST_correctLoc";"11";"1";"FINISHED";"RIGHT";"success";"368";"0";"2014-10-01 10:53:03.710";"2";;;;;;;;;;;;;;;;;;;;;;;;;;;;;;;;;
"chadwick123";"1994";;"Windows 7";"Rachel's Experiment (SCIAT)";"1.0";"1";"1";"1";"1";"2";"2";"2014-10-01 10:46:53.148";"2014-10-01 10:55:02.820";"1";"1";;;;;"1";"0";"1";"122";"121";"module.training_block3.exec-1837.GoNoGo3";;;;;;;;;;;;;;;;;;;;;;;;;"1248";"2014-10-01 10:53:07.460";"NST_correctLoc";"22";"1";"FINISHED";"RIGHT";"success";"292";"0";"2014-10-01 10:53:06.210";"3";;;;;;;;;;;;;;;;;;;;;;;;;;;;;;;;;
"chadwick123";"1994";;"Windows 7";"Rachel's Experiment (SCIAT)";"1.0";"1";"1";"1";"1";"2";"2";"2014-10-01 10:46:53.148";"2014-10-01 10:55:02.820";"1";"1";;;;;"1";"0";"1";"123";"122";"module.training_block3.exec-1837.GoNoGo3";;;;;;;;;;;;;;;;;;;;;;;;;"1248";"2014-10-01 10:53:09.960";"ST_failedStop";"30";"0";"FINISHED";"LEFT";"failure";"280";"1";"2014-10-01 10:53:08.710";"3";;;;;;;;;;;;;;;;;;;;;;;;;;;;;;;;;
"chadwick123";"1994";;"Windows 7";"Rachel's Experiment (SCIAT)";"1.0";"1";"1";"1";"1";"2";"2";"2014-10-01 10:46:53.148";"2014-10-01 10:55:02.820";"1";"1";;;;;"1";"0";"1";"124";"123";"module.training_block4.exec-7044.GoNoGo4";;;;;;;;;;;;;;;;;;;;;;;;;;;;;;;;;;;;;"1248";"2014-10-01 10:53:20.585";"ST_failedStop";"23";"1";"FINISHED";"LEFT";"failure";"230";"1";"2014-10-01 10:53:19.335";"3";;;;;;;;;;;;;;;;;;;;;
"chadwick123";"1994";;"Windows 7";"Rachel's Experiment (SCIAT)";"1.0";"1";"1";"1";"1";"2";"2";"2014-10-01 10:46:53.148";"2014-10-01 10:55:02.820";"1";"1";;;;;"1";"0";"1";"125";"124";"module.training_block4.exec-7044.GoNoGo4";;;;;;;;;;;;;;;;;;;;;;;;;;;;;;;;;;;;;"1248";"2014-10-01 10:53:23.085";"ST_failedStop";"7";"0";"FINISHED";"LEFT";"failure";"506";"1";"2014-10-01 10:53:21.835";"1";;;;;;;;;;;;;;;;;;;;;
"chadwick123";"1994";;"Windows 7";"Rachel's Experiment (SCIAT)";"1.0";"1";"1";"1";"1";"2";"2";"2014-10-01 10:46:53.148";"2014-10-01 10:55:02.820";"1";"1";;;;;"1";"0";"1";"126";"125";"module.training_block4.exec-7044.GoNoGo4";;;;;;;;;;;;;;;;;;;;;;;;;;;;;;;;;;;;;"1248";"2014-10-01 10:53:25.585";"ST_failedStop";"2";"0";"FINISHED";"LEFT";"failure";"358";"1";"2014-10-01 10:53:24.335";"1";;;;;;;;;;;;;;;;;;;;;
"chadwick123";"1994";;"Windows 7";"Rachel's Experiment (SCIAT)";"1.0";"1";"1";"1";"1";"2";"2";"2014-10-01 10:46:53.148";"2014-10-01 10:55:02.820";"1";"1";;;;;"1";"0";"1";"127";"126";"module.training_block4.exec-7044.GoNoGo4";;;;;;;;;;;;;;;;;;;;;;;;;;;;;;;;;;;;;"1248";"2014-10-01 10:53:28.085";"ST_failedStop";"5";"1";"FINISHED";"RIGHT";"failure";"290";"1";"2014-10-01 10:53:26.835";"1";;;;;;;;;;;;;;;;;;;;;
"chadwick123";"1994";;"Windows 7";"Rachel's Experiment (SCIAT)";"1.0";"1";"1";"1";"1";"2";"2";"2014-10-01 10:46:53.148";"2014-10-01 10:55:02.820";"1";"1";;;;;"1";"0";"1";"128";"127";"module.training_block4.exec-7044.GoNoGo4";;;;;;;;;;;;;;;;;;;;;;;;;;;;;;;;;;;;;"1248";"2014-10-01 10:53:30.585";"ST_failedStop";"20";"0";"FINISHED";"LEFT";"failure";"286";"1";"2014-10-01 10:53:29.335";"3";;;;;;;;;;;;;;;;;;;;;
"chadwick123";"1994";;"Windows 7";"Rachel's Experiment (SCIAT)";"1.0";"1";"1";"1";"1";"2";"2";"2014-10-01 10:46:53.148";"2014-10-01 10:55:02.820";"1";"1";;;;;"1";"0";"1";"129";"128";"module.training_block4.exec-7044.GoNoGo4";;;;;;;;;;;;;;;;;;;;;;;;;;;;;;;;;;;;;"1248";"2014-10-01 10:53:33.085";"NST_correctLoc";"14";"1";"FINISHED";"RIGHT";"success";"426";"0";"2014-10-01 10:53:31.835";"2";;;;;;;;;;;;;;;;;;;;;
"chadwick123";"1994";;"Windows 7";"Rachel's Experiment (SCIAT)";"1.0";"1";"1";"1";"1";"2";"2";"2014-10-01 10:46:53.148";"2014-10-01 10:55:02.820";"1";"1";;;;;"1";"0";"1";"130";"129";"module.training_block4.exec-7044.GoNoGo4";;;;;;;;;;;;;;;;;;;;;;;;;;;;;;;;;;;;;"1248";"2014-10-01 10:53:35.585";"NST_correctLoc";"29";"1";"FINISHED";"RIGHT";"success";"534";"0";"2014-10-01 10:53:34.335";"3";;;;;;;;;;;;;;;;;;;;;
"chadwick123";"1994";;"Windows 7";"Rachel's Experiment (SCIAT)";"1.0";"1";"1";"1";"1";"2";"2";"2014-10-01 10:46:53.148";"2014-10-01 10:55:02.820";"1";"1";;;;;"1";"0";"1";"131";"130";"module.training_block4.exec-7044.GoNoGo4";;;;;;;;;;;;;;;;;;;;;;;;;;;;;;;;;;;;;"1248";"2014-10-01 10:53:38.085";"NST_correctLoc";"30";"1";"FINISHED";"RIGHT";"success";"322";"0";"2014-10-01 10:53:36.835";"3";;;;;;;;;;;;;;;;;;;;;
"chadwick123";"1994";;"Windows 7";"Rachel's Experiment (SCIAT)";"1.0";"1";"1";"1";"1";"2";"2";"2014-10-01 10:46:53.148";"2014-10-01 10:55:02.820";"1";"1";;;;;"1";"0";"1";"132";"131";"module.training_block4.exec-7044.GoNoGo4";;;;;;;;;;;;;;;;;;;;;;;;;;;;;;;;;;;;;"1248";"2014-10-01 10:53:40.585";"NST_correctLoc";"28";"1";"FINISHED";"RIGHT";"success";"334";"0";"2014-10-01 10:53:39.335";"3";;;;;;;;;;;;;;;;;;;;;
"chadwick123";"1994";;"Windows 7";"Rachel's Experiment (SCIAT)";"1.0";"1";"1";"1";"1";"2";"2";"2014-10-01 10:46:53.148";"2014-10-01 10:55:02.820";"1";"1";;;;;"1";"0";"1";"133";"132";"module.training_block4.exec-7044.GoNoGo4";;;;;;;;;;;;;;;;;;;;;;;;;;;;;;;;;;;;;"1248";"2014-10-01 10:53:43.085";"ST_failedStop";"24";"0";"FINISHED";"RIGHT";"failure";"754";"1";"2014-10-01 10:53:41.835";"3";;;;;;;;;;;;;;;;;;;;;
"chadwick123";"1994";;"Windows 7";"Rachel's Experiment (SCIAT)";"1.0";"1";"1";"1";"1";"2";"2";"2014-10-01 10:46:53.148";"2014-10-01 10:55:02.820";"1";"1";;;;;"1";"0";"1";"134";"133";"module.training_block4.exec-7044.GoNoGo4";;;;;;;;;;;;;;;;;;;;;;;;;;;;;;;;;;;;;"1248";"2014-10-01 10:53:45.585";"NST_miss";"12";"1";"FINISHED";"NONE";"failure";"0";"0";"2014-10-01 10:53:44.335";"2";;;;;;;;;;;;;;;;;;;;;
"chadwick123";"1994";;"Windows 7";"Rachel's Experiment (SCIAT)";"1.0";"1";"1";"1";"1";"2";"2";"2014-10-01 10:46:53.148";"2014-10-01 10:55:02.820";"1";"1";;;;;"1";"0";"1";"135";"134";"module.training_block4.exec-7044.GoNoGo4";;;;;;;;;;;;;;;;;;;;;;;;;;;;;;;;;;;;;"1248";"2014-10-01 10:53:48.085";"NST_correctLoc";"25";"1";"FINISHED";"RIGHT";"success";"282";"0";"2014-10-01 10:53:46.835";"3";;;;;;;;;;;;;;;;;;;;;
"chadwick123";"1994";;"Windows 7";"Rachel's Experiment (SCIAT)";"1.0";"1";"1";"1";"1";"2";"2";"2014-10-01 10:46:53.148";"2014-10-01 10:55:02.820";"1";"1";;;;;"1";"0";"1";"136";"135";"module.training_block4.exec-7044.GoNoGo4";;;;;;;;;;;;;;;;;;;;;;;;;;;;;;;;;;;;;"1248";"2014-10-01 10:53:50.585";"ST_failedStop";"26";"0";"FINISHED";"LEFT";"failure";"302";"1";"2014-10-01 10:53:49.335";"3";;;;;;;;;;;;;;;;;;;;;
"chadwick123";"1994";;"Windows 7";"Rachel's Experiment (SCIAT)";"1.0";"1";"1";"1";"1";"2";"2";"2014-10-01 10:46:53.148";"2014-10-01 10:55:02.820";"1";"1";;;;;"1";"0";"1";"137";"136";"module.training_block4.exec-7044.GoNoGo4";;;;;;;;;;;;;;;;;;;;;;;;;;;;;;;;;;;;;"1248";"2014-10-01 10:53:53.101";"ST_failedStop";"8";"1";"FINISHED";"RIGHT";"failure";"338";"1";"2014-10-01 10:53:51.851";"1";;;;;;;;;;;;;;;;;;;;;
"chadwick123";"1994";;"Windows 7";"Rachel's Experiment (SCIAT)";"1.0";"1";"1";"1";"1";"2";"2";"2014-10-01 10:46:53.148";"2014-10-01 10:55:02.820";"1";"1";;;;;"1";"0";"1";"138";"137";"module.training_block4.exec-7044.GoNoGo4";;;;;;;;;;;;;;;;;;;;;;;;;;;;;;;;;;;;;"1248";"2014-10-01 10:53:55.601";"ST_failedStop";"34";"1";"FINISHED";"RIGHT";"failure";"310";"1";"2014-10-01 10:53:54.351";"3";;;;;;;;;;;;;;;;;;;;;
"chadwick123";"1994";;"Windows 7";"Rachel's Experiment (SCIAT)";"1.0";"1";"1";"1";"1";"2";"2";"2014-10-01 10:46:53.148";"2014-10-01 10:55:02.820";"1";"1";;;;;"1";"0";"1";"139";"138";"module.training_block4.exec-7044.GoNoGo4";;;;;;;;;;;;;;;;;;;;;;;;;;;;;;;;;;;;;"1248";"2014-10-01 10:53:58.101";"ST_failedStop";"0";"0";"FINISHED";"LEFT";"failure";"290";"1";"2014-10-01 10:53:56.851";"1";;;;;;;;;;;;;;;;;;;;;
"chadwick123";"1994";;"Windows 7";"Rachel's Experiment (SCIAT)";"1.0";"1";"1";"1";"1";"2";"2";"2014-10-01 10:46:53.148";"2014-10-01 10:55:02.820";"1";"1";;;;;"1";"0";"1";"140";"139";"module.training_block4.exec-7044.GoNoGo4";;;;;;;;;;;;;;;;;;;;;;;;;;;;;;;;;;;;;"1248";"2014-10-01 10:54:00.601";"NST_correctLoc";"16";"1";"FINISHED";"RIGHT";"success";"374";"0";"2014-10-01 10:53:59.351";"2";;;;;;;;;;;;;;;;;;;;;
"chadwick123";"1994";;"Windows 7";"Rachel's Experiment (SCIAT)";"1.0";"1";"1";"1";"1";"2";"2";"2014-10-01 10:46:53.148";"2014-10-01 10:55:02.820";"1";"1";;;;;"1";"0";"1";"141";"140";"module.training_block4.exec-7044.GoNoGo4";;;;;;;;;;;;;;;;;;;;;;;;;;;;;;;;;;;;;"1248";"2014-10-01 10:54:03.101";"ST_failedStop";"6";"1";"FINISHED";"RIGHT";"failure";"353";"1";"2014-10-01 10:54:01.851";"1";;;;;;;;;;;;;;;;;;;;;
"chadwick123";"1994";;"Windows 7";"Rachel's Experiment (SCIAT)";"1.0";"1";"1";"1";"1";"2";"2";"2014-10-01 10:46:53.148";"2014-10-01 10:55:02.820";"1";"1";;;;;"1";"0";"1";"142";"141";"module.training_block4.exec-7044.GoNoGo4";;;;;;;;;;;;;;;;;;;;;;;;;;;;;;;;;;;;;"1248";"2014-10-01 10:54:05.617";"NST_correctLoc";"15";"0";"FINISHED";"LEFT";"success";"270";"0";"2014-10-01 10:54:04.367";"2";;;;;;;;;;;;;;;;;;;;;
"chadwick123";"1994";;"Windows 7";"Rachel's Experiment (SCIAT)";"1.0";"1";"1";"1";"1";"2";"2";"2014-10-01 10:46:53.148";"2014-10-01 10:55:02.820";"1";"1";;;;;"1";"0";"1";"143";"142";"module.training_block4.exec-7044.GoNoGo4";;;;;;;;;;;;;;;;;;;;;;;;;;;;;;;;;;;;;"1248";"2014-10-01 10:54:08.117";"ST_failedStop";"21";"0";"FINISHED";"LEFT";"failure";"378";"1";"2014-10-01 10:54:06.867";"3";;;;;;;;;;;;;;;;;;;;;
"chadwick123";"1994";;"Windows 7";"Rachel's Experiment (SCIAT)";"1.0";"1";"1";"1";"1";"2";"2";"2014-10-01 10:46:53.148";"2014-10-01 10:55:02.820";"1";"1";;;;;"1";"0";"1";"144";"143";"module.training_block4.exec-7044.GoNoGo4";;;;;;;;;;;;;;;;;;;;;;;;;;;;;;;;;;;;;"1248";"2014-10-01 10:54:10.617";"ST_failedStop";"35";"0";"FINISHED";"LEFT";"failure";"390";"1";"2014-10-01 10:54:09.367";"3";;;;;;;;;;;;;;;;;;;;;
"chadwick123";"1994";;"Windows 7";"Rachel's Experiment (SCIAT)";"1.0";"1";"1";"1";"1";"2";"2";"2014-10-01 10:46:53.148";"2014-10-01 10:55:02.820";"1";"1";;;;;"1";"0";"1";"145";"144";"module.training_block4.exec-7044.GoNoGo4";;;;;;;;;;;;;;;;;;;;;;;;;;;;;;;;;;;;;"1248";"2014-10-01 10:54:13.117";"ST_failedStop";"3";"1";"FINISHED";"RIGHT";"failure";"329";"1";"2014-10-01 10:54:11.867";"1";;;;;;;;;;;;;;;;;;;;;
"chadwick123";"1994";;"Windows 7";"Rachel's Experiment (SCIAT)";"1.0";"1";"1";"1";"1";"2";"2";"2014-10-01 10:46:53.148";"2014-10-01 10:55:02.820";"1";"1";;;;;"1";"0";"1";"146";"145";"module.training_block4.exec-7044.GoNoGo4";;;;;;;;;;;;;;;;;;;;;;;;;;;;;;;;;;;;;"1248";"2014-10-01 10:54:15.632";"NST_correctLoc";"33";"0";"FINISHED";"LEFT";"success";"350";"0";"2014-10-01 10:54:14.382";"3";;;;;;;;;;;;;;;;;;;;;
"chadwick123";"1994";;"Windows 7";"Rachel's Experiment (SCIAT)";"1.0";"1";"1";"1";"1";"2";"2";"2014-10-01 10:46:53.148";"2014-10-01 10:55:02.820";"1";"1";;;;;"1";"0";"1";"147";"146";"module.training_block4.exec-7044.GoNoGo4";;;;;;;;;;;;;;;;;;;;;;;;;;;;;;;;;;;;;"1248";"2014-10-01 10:54:18.132";"NST_correctLoc";"32";"1";"FINISHED";"RIGHT";"success";"298";"0";"2014-10-01 10:54:16.882";"3";;;;;;;;;;;;;;;;;;;;;
"chadwick123";"1994";;"Windows 7";"Rachel's Experiment (SCIAT)";"1.0";"1";"1";"1";"1";"2";"2";"2014-10-01 10:46:53.148";"2014-10-01 10:55:02.820";"1";"1";;;;;"1";"0";"1";"148";"147";"module.training_block4.exec-7044.GoNoGo4";;;;;;;;;;;;;;;;;;;;;;;;;;;;;;;;;;;;;"1248";"2014-10-01 10:54:20.632";"ST_failedStop";"22";"1";"FINISHED";"RIGHT";"failure";"550";"1";"2014-10-01 10:54:19.382";"3";;;;;;;;;;;;;;;;;;;;;
"chadwick123";"1994";;"Windows 7";"Rachel's Experiment (SCIAT)";"1.0";"1";"1";"1";"1";"2";"2";"2014-10-01 10:46:53.148";"2014-10-01 10:55:02.820";"1";"1";;;;;"1";"0";"1";"149";"148";"module.training_block4.exec-7044.GoNoGo4";;;;;;;;;;;;;;;;;;;;;;;;;;;;;;;;;;;;;"1248";"2014-10-01 10:54:23.132";"ST_failedStop";"18";"0";"FINISHED";"LEFT";"failure";"401";"1";"2014-10-01 10:54:21.882";"3";;;;;;;;;;;;;;;;;;;;;
"chadwick123";"1994";;"Windows 7";"Rachel's Experiment (SCIAT)";"1.0";"1";"1";"1";"1";"2";"2";"2014-10-01 10:46:53.148";"2014-10-01 10:55:02.820";"1";"1";;;;;"1";"0";"1";"150";"149";"module.training_block4.exec-7044.GoNoGo4";;;;;;;;;;;;;;;;;;;;;;;;;;;;;;;;;;;;;"1248";"2014-10-01 10:54:25.632";"ST_failedStop";"4";"1";"FINISHED";"RIGHT";"failure";"405";"1";"2014-10-01 10:54:24.382";"1";;;;;;;;;;;;;;;;;;;;;
"chadwick123";"1994";;"Windows 7";"Rachel's Experiment (SCIAT)";"1.0";"1";"1";"1";"1";"2";"2";"2014-10-01 10:46:53.148";"2014-10-01 10:55:02.820";"1";"1";;;;;"1";"0";"1";"151";"150";"module.training_block4.exec-7044.GoNoGo4";;;;;;;;;;;;;;;;;;;;;;;;;;;;;;;;;;;;;"1248";"2014-10-01 10:54:28.132";"ST_failedStop";"1";"1";"FINISHED";"RIGHT";"failure";"529";"1";"2014-10-01 10:54:26.882";"1";;;;;;;;;;;;;;;;;;;;;
"chadwick123";"1994";;"Windows 7";"Rachel's Experiment (SCIAT)";"1.0";"1";"1";"1";"1";"2";"2";"2014-10-01 10:46:53.148";"2014-10-01 10:55:02.820";"1";"1";;;;;"1";"0";"1";"152";"151";"module.training_block4.exec-7044.GoNoGo4";;;;;;;;;;;;;;;;;;;;;;;;;;;;;;;;;;;;;"1248";"2014-10-01 10:54:30.632";"NST_correctLoc";"10";"0";"FINISHED";"LEFT";"success";"1013";"0";"2014-10-01 10:54:29.382";"2";;;;;;;;;;;;;;;;;;;;;
"chadwick123";"1994";;"Windows 7";"Rachel's Experiment (SCIAT)";"1.0";"1";"1";"1";"1";"2";"2";"2014-10-01 10:46:53.148";"2014-10-01 10:55:02.820";"1";"1";;;;;"1";"0";"1";"153";"152";"module.training_block4.exec-7044.GoNoGo4";;;;;;;;;;;;;;;;;;;;;;;;;;;;;;;;;;;;;"1244";"2014-10-01 10:54:33.132";"NST_correctLoc";"17";"0";"FINISHED";"LEFT";"success";"573";"0";"2014-10-01 10:54:31.882";"2";;;;;;;;;;;;;;;;;;;;;
"chadwick123";"1994";;"Windows 7";"Rachel's Experiment (SCIAT)";"1.0";"1";"1";"1";"1";"2";"2";"2014-10-01 10:46:53.148";"2014-10-01 10:55:02.820";"1";"1";;;;;"1";"0";"1";"154";"153";"module.training_block4.exec-7044.GoNoGo4";;;;;;;;;;;;;;;;;;;;;;;;;;;;;;;;;;;;;"1248";"2014-10-01 10:54:35.632";"NST_correctLoc";"31";"1";"FINISHED";"RIGHT";"success";"445";"0";"2014-10-01 10:54:34.382";"3";;;;;;;;;;;;;;;;;;;;;
"chadwick123";"1994";;"Windows 7";"Rachel's Experiment (SCIAT)";"1.0";"1";"1";"1";"1";"2";"2";"2014-10-01 10:46:53.148";"2014-10-01 10:55:02.820";"1";"1";;;;;"1";"0";"1";"155";"154";"module.training_block4.exec-7044.GoNoGo4";;;;;;;;;;;;;;;;;;;;;;;;;;;;;;;;;;;;;"1248";"2014-10-01 10:54:38.132";"NST_correctLoc";"9";"1";"FINISHED";"RIGHT";"success";"369";"0";"2014-10-01 10:54:36.882";"2";;;;;;;;;;;;;;;;;;;;;
"chadwick123";"1994";;"Windows 7";"Rachel's Experiment (SCIAT)";"1.0";"1";"1";"1";"1";"2";"2";"2014-10-01 10:46:53.148";"2014-10-01 10:55:02.820";"1";"1";;;;;"1";"0";"1";"156";"155";"module.training_block4.exec-7044.GoNoGo4";;;;;;;;;;;;;;;;;;;;;;;;;;;;;;;;;;;;;"1248";"2014-10-01 10:54:40.632";"NST_correctLoc";"27";"1";"FINISHED";"RIGHT";"success";"285";"0";"2014-10-01 10:54:39.382";"3";;;;;;;;;;;;;;;;;;;;;
"chadwick123";"1994";;"Windows 7";"Rachel's Experiment (SCIAT)";"1.0";"1";"1";"1";"1";"2";"2";"2014-10-01 10:46:53.148";"2014-10-01 10:55:02.820";"1";"1";;;;;"1";"0";"1";"157";"156";"module.training_block4.exec-7044.GoNoGo4";;;;;;;;;;;;;;;;;;;;;;;;;;;;;;;;;;;;;"1248";"2014-10-01 10:54:43.132";"NST_correctLoc";"13";"0";"FINISHED";"LEFT";"success";"305";"0";"2014-10-01 10:54:41.882";"2";;;;;;;;;;;;;;;;;;;;;
"chadwick123";"1994";;"Windows 7";"Rachel's Experiment (SCIAT)";"1.0";"1";"1";"1";"1";"2";"2";"2014-10-01 10:46:53.148";"2014-10-01 10:55:02.820";"1";"1";;;;;"1";"0";"1";"158";"157";"module.training_block4.exec-7044.GoNoGo4";;;;;;;;;;;;;;;;;;;;;;;;;;;;;;;;;;;;;"1248";"2014-10-01 10:54:45.632";"NST_correctLoc";"11";"1";"FINISHED";"RIGHT";"success";"613";"0";"2014-10-01 10:54:44.382";"2";;;;;;;;;;;;;;;;;;;;;
"chadwick123";"1994";;"Windows 7";"Rachel's Experiment (SCIAT)";"1.0";"1";"1";"1";"1";"2";"2";"2014-10-01 10:46:53.148";"2014-10-01 10:55:02.820";"1";"1";;;;;"1";"0";"1";"159";"158";"module.training_block4.exec-7044.GoNoGo4";;;;;;;;;;;;;;;;;;;;;;;;;;;;;;;;;;;;;"1248";"2014-10-01 10:54:48.132";"NST_correctLoc";"19";"0";"FINISHED";"LEFT";"success";"1240";"0";"2014-10-01 10:54:46.882";"3";;;;;;;;;;;;;;;;;;;;;
