"user.name";"user.yearOfBirth";"user.sex";"user.osName";"module.name";"module.version";"module.online.subject.code";"module.online.study.id";"module.online.module.nr";"module.online.group.nr";"session.id";"session.index";"session.startTime";"session.endTime";"session.completed";"session.node-3422.blockOrder";"session.node-3422.IATorder";"session.node-3422.keyOrder";"session.node-4640.conditionType";"trial.id";"trial.index";"trial.name";"trial.GoNoGo1.durationTime";"trial.GoNoGo1.endTime";"trial.GoNoGo1.Error Type";"trial.GoNoGo1.icon";"trial.GoNoGo1.location";"trial.GoNoGo1.outcome";"trial.GoNoGo1.response";"trial.GoNoGo1.result";"trial.GoNoGo1.RT";"trial.GoNoGo1.signal";"trial.GoNoGo1.startTime";"trial.GoNoGo1.stimulus type";"trial.GoNoGo2.durationTime";"trial.GoNoGo2.endTime";"trial.GoNoGo2.Error Type";"trial.GoNoGo2.icon";"trial.GoNoGo2.location";"trial.GoNoGo2.outcome";"trial.GoNoGo2.response";"trial.GoNoGo2.result";"trial.GoNoGo2.RT";"trial.GoNoGo2.signal";"trial.GoNoGo2.startTime";"trial.GoNoGo2.stimulus type";"trial.GoNoGo3.durationTime";"trial.GoNoGo3.endTime";"trial.GoNoGo3.Error Type";"trial.GoNoGo3.icon";"trial.GoNoGo3.location";"trial.GoNoGo3.outcome";"trial.GoNoGo3.response";"trial.GoNoGo3.result";"trial.GoNoGo3.RT";"trial.GoNoGo3.signal";"trial.GoNoGo3.startTime";"trial.GoNoGo3.stimulus type";"trial.GoNoGo4.durationTime";"trial.GoNoGo4.endTime";"trial.GoNoGo4.Error Type";"trial.GoNoGo4.icon";"trial.GoNoGo4.location";"trial.GoNoGo4.outcome";"trial.GoNoGo4.response";"trial.GoNoGo4.result";"trial.GoNoGo4.RT";"trial.GoNoGo4.signal";"trial.GoNoGo4.startTime";"trial.GoNoGo4.stimulus type";"trial.GoNoGo_Practice.durationTime";"trial.GoNoGo_Practice.endTime";"trial.GoNoGo_Practice.icon";"trial.GoNoGo_Practice.location";"trial.GoNoGo_Practice.outcome";"trial.GoNoGo_Practice.response";"trial.GoNoGo_Practice.result";"trial.GoNoGo_Practice.RT";"trial.GoNoGo_Practice.signal";"trial.GoNoGo_Practice.startTime";"trial.GoNoGo_Practice.stimulus type";"trial.GoNoGo_Tutorial.durationTime";"trial.GoNoGo_Tutorial.endTime";"trial.GoNoGo_Tutorial.icon";"trial.GoNoGo_Tutorial.location";"trial.GoNoGo_Tutorial.outcome";"trial.GoNoGo_Tutorial.response";"trial.GoNoGo_Tutorial.result";"trial.GoNoGo_Tutorial.RT";"trial.GoNoGo_Tutorial.signal";"trial.GoNoGo_Tutorial.startTime";"trial.IAT_block1.durationTime";"trial.IAT_block1.endTime";"trial.IAT_block1.outcome";"trial.IAT_block1.response";"trial.IAT_block1.result";"trial.IAT_block1.RT";"trial.IAT_block1.startTime";"trial.IAT_block1.Stimfile";"trial.IAT_block1.stimType";"trial.IAT_block1.word";"trial.IAT_block2.durationTime";"trial.IAT_block2.endTime";"trial.IAT_block2.outcome";"trial.IAT_block2.response";"trial.IAT_block2.result";"trial.IAT_block2.RT";"trial.IAT_block2.startTime";"trial.IAT_block2.Stimfile";"trial.IAT_block2.stimType";"trial.IAT_block2.word";"trial.IAT_Practice1.durationTime";"trial.IAT_Practice1.endTime";"trial.IAT_Practice1.outcome";"trial.IAT_Practice1.response";"trial.IAT_Practice1.result";"trial.IAT_Practice1.RT";"trial.IAT_Practice1.startTime";"trial.IAT_Practice1.Stimfile";"trial.IAT_Practice1.stimType";"trial.IAT_Practice1.word"
"ClaudiusP";"1993";;"Windows 7";"Rachel's Experiment (SCIAT)";"1.0";"1";"1";"1";"1";"1";"1";"2014-07-17 13:40:13.725";"2014-07-17 14:00:33.179";"1";"0";"1";"0";"0";"1";"0";"module.GoNoGotutorial.exec-7350.GoNoGo_Tutorial";;;;;;;;;;;;;;;;;;;;;;;;;;;;;;;;;;;;;;;;;;;;;;;;;;;;;;;;;;;;"4011";"2014-07-17 13:40:53.989";"leftResponse";"0";"FINISHED";"LEFT";"success";"1629";"0";"2014-07-17 13:40:49.978";;;;;;;;;;;;;;;;;;;;;;;;;;;;;;
"ClaudiusP";"1993";;"Windows 7";"Rachel's Experiment (SCIAT)";"1.0";"1";"1";"1";"1";"1";"1";"2014-07-17 13:40:13.725";"2014-07-17 14:00:33.179";"1";"0";"1";"0";"0";"2";"1";"module.GoNoGotutorial.exec-7350.GoNoGo_Tutorial";;;;;;;;;;;;;;;;;;;;;;;;;;;;;;;;;;;;;;;;;;;;;;;;;;;;;;;;;;;;"4003";"2014-07-17 13:40:59.308";"rightResponse";"1";"FINISHED";"RIGHT";"success";"854";"0";"2014-07-17 13:40:55.299";;;;;;;;;;;;;;;;;;;;;;;;;;;;;;
"ClaudiusP";"1993";;"Windows 7";"Rachel's Experiment (SCIAT)";"1.0";"1";"1";"1";"1";"1";"1";"2014-07-17 13:40:13.725";"2014-07-17 14:00:33.179";"1";"0";"1";"0";"0";"3";"2";"module.GoNoGotutorial.exec-7350.GoNoGo_Tutorial";;;;;;;;;;;;;;;;;;;;;;;;;;;;;;;;;;;;;;;;;;;;;;;;;;;;;;;;;;;;"4003";"2014-07-17 13:41:04.612";"quickResponse";"0";"FINISHED";"NONE";"failure";"0";"0";"2014-07-17 13:41:00.603";;;;;;;;;;;;;;;;;;;;;;;;;;;;;;
"ClaudiusP";"1993";;"Windows 7";"Rachel's Experiment (SCIAT)";"1.0";"1";"1";"1";"1";"1";"1";"2014-07-17 13:40:13.725";"2014-07-17 14:00:33.179";"1";"0";"1";"0";"0";"4";"3";"module.GoNoGopractice.exec-6527.GoNoGo_Practice";;;;;;;;;;;;;;;;;;;;;;;;;;;;;;;;;;;;;;;;;;;;;;;;;"1959";"2014-07-17 13:41:16.344";"18";"0";"FINISHED";"NONE";"failure";"0";"0";"2014-07-17 13:41:14.378";"3";;;;;;;;;;;;;;;;;;;;;;;;;;;;;;;;;;;;;;;;
"ClaudiusP";"1993";;"Windows 7";"Rachel's Experiment (SCIAT)";"1.0";"1";"1";"1";"1";"1";"1";"2014-07-17 13:40:13.725";"2014-07-17 14:00:33.179";"1";"0";"1";"0";"0";"5";"4";"module.GoNoGopractice.exec-6527.GoNoGo_Practice";;;;;;;;;;;;;;;;;;;;;;;;;;;;;;;;;;;;;;;;;;;;;;;;;"1958";"2014-07-17 13:41:19.604";"21";"1";"FINISHED";"RIGHT";"success";"1170";"0";"2014-07-17 13:41:17.638";"3";;;;;;;;;;;;;;;;;;;;;;;;;;;;;;;;;;;;;;;;
"ClaudiusP";"1993";;"Windows 7";"Rachel's Experiment (SCIAT)";"1.0";"1";"1";"1";"1";"1";"1";"2014-07-17 13:40:13.725";"2014-07-17 14:00:33.179";"1";"0";"1";"0";"0";"6";"5";"module.GoNoGopractice.exec-6527.GoNoGo_Practice";;;;;;;;;;;;;;;;;;;;;;;;;;;;;;;;;;;;;;;;;;;;;;;;;"1959";"2014-07-17 13:41:22.864";"14";"1";"FINISHED";"RIGHT";"success";"486";"0";"2014-07-17 13:41:20.899";"2";;;;;;;;;;;;;;;;;;;;;;;;;;;;;;;;;;;;;;;;
"ClaudiusP";"1993";;"Windows 7";"Rachel's Experiment (SCIAT)";"1.0";"1";"1";"1";"1";"1";"1";"2014-07-17 13:40:13.725";"2014-07-17 14:00:33.179";"1";"0";"1";"0";"0";"7";"6";"module.GoNoGopractice.exec-6527.GoNoGo_Practice";;;;;;;;;;;;;;;;;;;;;;;;;;;;;;;;;;;;;;;;;;;;;;;;;"1959";"2014-07-17 13:41:26.125";"26";"0";"FINISHED";"LEFT";"success";"354";"0";"2014-07-17 13:41:24.159";"3";;;;;;;;;;;;;;;;;;;;;;;;;;;;;;;;;;;;;;;;
"ClaudiusP";"1993";;"Windows 7";"Rachel's Experiment (SCIAT)";"1.0";"1";"1";"1";"1";"1";"1";"2014-07-17 13:40:13.725";"2014-07-17 14:00:33.179";"1";"0";"1";"0";"0";"8";"7";"module.GoNoGopractice.exec-6527.GoNoGo_Practice";;;;;;;;;;;;;;;;;;;;;;;;;;;;;;;;;;;;;;;;;;;;;;;;;"1959";"2014-07-17 13:41:29.370";"2";"0";"FINISHED";"LEFT";"success";"421";"0";"2014-07-17 13:41:27.404";"1";;;;;;;;;;;;;;;;;;;;;;;;;;;;;;;;;;;;;;;;
"ClaudiusP";"1993";;"Windows 7";"Rachel's Experiment (SCIAT)";"1.0";"1";"1";"1";"1";"1";"1";"2014-07-17 13:40:13.725";"2014-07-17 14:00:33.179";"1";"0";"1";"0";"0";"9";"8";"module.GoNoGopractice.exec-6527.GoNoGo_Practice";;;;;;;;;;;;;;;;;;;;;;;;;;;;;;;;;;;;;;;;;;;;;;;;;"1960";"2014-07-17 13:41:32.614";"30";"0";"FINISHED";"LEFT";"success";"385";"0";"2014-07-17 13:41:30.649";"3";;;;;;;;;;;;;;;;;;;;;;;;;;;;;;;;;;;;;;;;
"ClaudiusP";"1993";;"Windows 7";"Rachel's Experiment (SCIAT)";"1.0";"1";"1";"1";"1";"1";"1";"2014-07-17 13:40:13.725";"2014-07-17 14:00:33.179";"1";"0";"1";"0";"0";"10";"9";"module.GoNoGopractice.exec-6527.GoNoGo_Practice";;;;;;;;;;;;;;;;;;;;;;;;;;;;;;;;;;;;;;;;;;;;;;;;;"1959";"2014-07-17 13:41:35.859";"6";"1";"FINISHED";"RIGHT";"success";"307";"0";"2014-07-17 13:41:33.894";"1";;;;;;;;;;;;;;;;;;;;;;;;;;;;;;;;;;;;;;;;
"ClaudiusP";"1993";;"Windows 7";"Rachel's Experiment (SCIAT)";"1.0";"1";"1";"1";"1";"1";"1";"2014-07-17 13:40:13.725";"2014-07-17 14:00:33.179";"1";"0";"1";"0";"0";"11";"10";"module.GoNoGopractice.exec-6527.GoNoGo_Practice";;;;;;;;;;;;;;;;;;;;;;;;;;;;;;;;;;;;;;;;;;;;;;;;;"1960";"2014-07-17 13:41:39.104";"34";"0";"FINISHED";"LEFT";"success";"320";"0";"2014-07-17 13:41:37.138";"3";;;;;;;;;;;;;;;;;;;;;;;;;;;;;;;;;;;;;;;;
"ClaudiusP";"1993";;"Windows 7";"Rachel's Experiment (SCIAT)";"1.0";"1";"1";"1";"1";"1";"1";"2014-07-17 13:40:13.725";"2014-07-17 14:00:33.179";"1";"0";"1";"0";"0";"12";"11";"module.GoNoGopractice.exec-6527.GoNoGo_Practice";;;;;;;;;;;;;;;;;;;;;;;;;;;;;;;;;;;;;;;;;;;;;;;;;"1959";"2014-07-17 13:41:42.349";"23";"1";"FINISHED";"RIGHT";"success";"298";"0";"2014-07-17 13:41:40.383";"3";;;;;;;;;;;;;;;;;;;;;;;;;;;;;;;;;;;;;;;;
"ClaudiusP";"1993";;"Windows 7";"Rachel's Experiment (SCIAT)";"1.0";"1";"1";"1";"1";"1";"1";"2014-07-17 13:40:13.725";"2014-07-17 14:00:33.179";"1";"0";"1";"0";"0";"13";"12";"module.GoNoGopractice.exec-6527.GoNoGo_Practice";;;;;;;;;;;;;;;;;;;;;;;;;;;;;;;;;;;;;;;;;;;;;;;;;"1959";"2014-07-17 13:41:45.594";"13";"0";"FINISHED";"LEFT";"success";"261";"0";"2014-07-17 13:41:43.628";"2";;;;;;;;;;;;;;;;;;;;;;;;;;;;;;;;;;;;;;;;
"ClaudiusP";"1993";;"Windows 7";"Rachel's Experiment (SCIAT)";"1.0";"1";"1";"1";"1";"1";"1";"2014-07-17 13:40:13.725";"2014-07-17 14:00:33.179";"1";"0";"1";"0";"0";"14";"13";"module.GoNoGopractice.exec-6527.GoNoGo_Practice";;;;;;;;;;;;;;;;;;;;;;;;;;;;;;;;;;;;;;;;;;;;;;;;;"1960";"2014-07-17 13:41:48.839";"3";"1";"FINISHED";"RIGHT";"success";"345";"0";"2014-07-17 13:41:46.873";"1";;;;;;;;;;;;;;;;;;;;;;;;;;;;;;;;;;;;;;;;
"ClaudiusP";"1993";;"Windows 7";"Rachel's Experiment (SCIAT)";"1.0";"1";"1";"1";"1";"1";"1";"2014-07-17 13:40:13.725";"2014-07-17 14:00:33.179";"1";"0";"1";"0";"0";"15";"14";"module.GoNoGopractice.exec-6527.GoNoGo_Practice";;;;;;;;;;;;;;;;;;;;;;;;;;;;;;;;;;;;;;;;;;;;;;;;;"1959";"2014-07-17 13:41:52.083";"27";"1";"FINISHED";"RIGHT";"success";"379";"0";"2014-07-17 13:41:50.118";"3";;;;;;;;;;;;;;;;;;;;;;;;;;;;;;;;;;;;;;;;
"ClaudiusP";"1993";;"Windows 7";"Rachel's Experiment (SCIAT)";"1.0";"1";"1";"1";"1";"1";"1";"2014-07-17 13:40:13.725";"2014-07-17 14:00:33.179";"1";"0";"1";"0";"0";"16";"15";"module.training_block1.exec-4781.GoNoGo1";"1261";"2014-07-17 13:42:02.130";"NST_correctLoc";"3";"1";"FINISHED";"RIGHT";"success";"362";"0";"2014-07-17 13:42:00.866";"1";;;;;;;;;;;;;;;;;;;;;;;;;;;;;;;;;;;;;;;;;;;;;;;;;;;;;;;;;;;;;;;;;;;;;;;;;;;;;;;;;;;;;;;
"ClaudiusP";"1993";;"Windows 7";"Rachel's Experiment (SCIAT)";"1.0";"1";"1";"1";"1";"1";"1";"2014-07-17 13:40:13.725";"2014-07-17 14:00:33.179";"1";"0";"1";"0";"0";"17";"16";"module.training_block1.exec-4781.GoNoGo1";"1257";"2014-07-17 13:42:04.673";"NST_correctLoc";"24";"0";"FINISHED";"LEFT";"success";"344";"0";"2014-07-17 13:42:03.409";"3";;;;;;;;;;;;;;;;;;;;;;;;;;;;;;;;;;;;;;;;;;;;;;;;;;;;;;;;;;;;;;;;;;;;;;;;;;;;;;;;;;;;;;;
"ClaudiusP";"1993";;"Windows 7";"Rachel's Experiment (SCIAT)";"1.0";"1";"1";"1";"1";"1";"1";"2014-07-17 13:40:13.725";"2014-07-17 14:00:33.179";"1";"0";"1";"0";"0";"18";"17";"module.training_block1.exec-4781.GoNoGo1";"1258";"2014-07-17 13:42:07.215";"NST_correctLoc";"12";"0";"FINISHED";"LEFT";"success";"378";"0";"2014-07-17 13:42:05.952";"2";;;;;;;;;;;;;;;;;;;;;;;;;;;;;;;;;;;;;;;;;;;;;;;;;;;;;;;;;;;;;;;;;;;;;;;;;;;;;;;;;;;;;;;
"ClaudiusP";"1993";;"Windows 7";"Rachel's Experiment (SCIAT)";"1.0";"1";"1";"1";"1";"1";"1";"2014-07-17 13:40:13.725";"2014-07-17 14:00:33.179";"1";"0";"1";"0";"0";"19";"18";"module.training_block1.exec-4781.GoNoGo1";"1257";"2014-07-17 13:42:09.758";"NST_correctLoc";"32";"1";"FINISHED";"RIGHT";"success";"370";"0";"2014-07-17 13:42:08.495";"3";;;;;;;;;;;;;;;;;;;;;;;;;;;;;;;;;;;;;;;;;;;;;;;;;;;;;;;;;;;;;;;;;;;;;;;;;;;;;;;;;;;;;;;
"ClaudiusP";"1993";;"Windows 7";"Rachel's Experiment (SCIAT)";"1.0";"1";"1";"1";"1";"1";"1";"2014-07-17 13:40:13.725";"2014-07-17 14:00:33.179";"1";"0";"1";"0";"0";"20";"19";"module.training_block1.exec-4781.GoNoGo1";"1261";"2014-07-17 13:42:12.301";"NST_correctLoc";"13";"0";"FINISHED";"LEFT";"success";"320";"0";"2014-07-17 13:42:11.037";"2";;;;;;;;;;;;;;;;;;;;;;;;;;;;;;;;;;;;;;;;;;;;;;;;;;;;;;;;;;;;;;;;;;;;;;;;;;;;;;;;;;;;;;;
"ClaudiusP";"1993";;"Windows 7";"Rachel's Experiment (SCIAT)";"1.0";"1";"1";"1";"1";"1";"1";"2014-07-17 13:40:13.725";"2014-07-17 14:00:33.179";"1";"0";"1";"0";"0";"21";"20";"module.training_block1.exec-4781.GoNoGo1";"1261";"2014-07-17 13:42:14.844";"NST_correctLoc";"34";"0";"FINISHED";"LEFT";"success";"313";"0";"2014-07-17 13:42:13.580";"3";;;;;;;;;;;;;;;;;;;;;;;;;;;;;;;;;;;;;;;;;;;;;;;;;;;;;;;;;;;;;;;;;;;;;;;;;;;;;;;;;;;;;;;
"ClaudiusP";"1993";;"Windows 7";"Rachel's Experiment (SCIAT)";"1.0";"1";"1";"1";"1";"1";"1";"2014-07-17 13:40:13.725";"2014-07-17 14:00:33.179";"1";"0";"1";"0";"0";"22";"21";"module.training_block1.exec-4781.GoNoGo1";"1257";"2014-07-17 13:42:17.387";"NST_correctLoc";"31";"0";"FINISHED";"LEFT";"success";"374";"0";"2014-07-17 13:42:16.123";"3";;;;;;;;;;;;;;;;;;;;;;;;;;;;;;;;;;;;;;;;;;;;;;;;;;;;;;;;;;;;;;;;;;;;;;;;;;;;;;;;;;;;;;;
"ClaudiusP";"1993";;"Windows 7";"Rachel's Experiment (SCIAT)";"1.0";"1";"1";"1";"1";"1";"1";"2014-07-17 13:40:13.725";"2014-07-17 14:00:33.179";"1";"0";"1";"0";"0";"23";"22";"module.training_block1.exec-4781.GoNoGo1";"1258";"2014-07-17 13:42:19.929";"NST_correctLoc";"25";"0";"FINISHED";"LEFT";"success";"376";"0";"2014-07-17 13:42:18.666";"3";;;;;;;;;;;;;;;;;;;;;;;;;;;;;;;;;;;;;;;;;;;;;;;;;;;;;;;;;;;;;;;;;;;;;;;;;;;;;;;;;;;;;;;
"ClaudiusP";"1993";;"Windows 7";"Rachel's Experiment (SCIAT)";"1.0";"1";"1";"1";"1";"1";"1";"2014-07-17 13:40:13.725";"2014-07-17 14:00:33.179";"1";"0";"1";"0";"0";"24";"23";"module.training_block1.exec-4781.GoNoGo1";"1257";"2014-07-17 13:42:22.581";"NST_correctLoc";"7";"1";"FINISHED";"RIGHT";"success";"331";"0";"2014-07-17 13:42:21.318";"1";;;;;;;;;;;;;;;;;;;;;;;;;;;;;;;;;;;;;;;;;;;;;;;;;;;;;;;;;;;;;;;;;;;;;;;;;;;;;;;;;;;;;;;
"ClaudiusP";"1993";;"Windows 7";"Rachel's Experiment (SCIAT)";"1.0";"1";"1";"1";"1";"1";"1";"2014-07-17 13:40:13.725";"2014-07-17 14:00:33.179";"1";"0";"1";"0";"0";"25";"24";"module.training_block1.exec-4781.GoNoGo1";"1258";"2014-07-17 13:42:25.124";"NST_correctLoc";"27";"1";"FINISHED";"RIGHT";"success";"380";"0";"2014-07-17 13:42:23.861";"3";;;;;;;;;;;;;;;;;;;;;;;;;;;;;;;;;;;;;;;;;;;;;;;;;;;;;;;;;;;;;;;;;;;;;;;;;;;;;;;;;;;;;;;
"ClaudiusP";"1993";;"Windows 7";"Rachel's Experiment (SCIAT)";"1.0";"1";"1";"1";"1";"1";"1";"2014-07-17 13:40:13.725";"2014-07-17 14:00:33.179";"1";"0";"1";"0";"0";"26";"25";"module.training_block1.exec-4781.GoNoGo1";"1257";"2014-07-17 13:42:27.667";"NST_correctLoc";"11";"1";"FINISHED";"RIGHT";"success";"342";"0";"2014-07-17 13:42:26.403";"2";;;;;;;;;;;;;;;;;;;;;;;;;;;;;;;;;;;;;;;;;;;;;;;;;;;;;;;;;;;;;;;;;;;;;;;;;;;;;;;;;;;;;;;
"ClaudiusP";"1993";;"Windows 7";"Rachel's Experiment (SCIAT)";"1.0";"1";"1";"1";"1";"1";"1";"2014-07-17 13:40:13.725";"2014-07-17 14:00:33.179";"1";"0";"1";"0";"0";"27";"26";"module.training_block1.exec-4781.GoNoGo1";"1257";"2014-07-17 13:42:30.210";"NST_correctLoc";"23";"0";"FINISHED";"LEFT";"success";"263";"0";"2014-07-17 13:42:28.946";"3";;;;;;;;;;;;;;;;;;;;;;;;;;;;;;;;;;;;;;;;;;;;;;;;;;;;;;;;;;;;;;;;;;;;;;;;;;;;;;;;;;;;;;;
"ClaudiusP";"1993";;"Windows 7";"Rachel's Experiment (SCIAT)";"1.0";"1";"1";"1";"1";"1";"1";"2014-07-17 13:40:13.725";"2014-07-17 14:00:33.179";"1";"0";"1";"0";"0";"28";"27";"module.training_block1.exec-4781.GoNoGo1";"1258";"2014-07-17 13:42:32.753";"NST_correctLoc";"22";"1";"FINISHED";"RIGHT";"success";"368";"0";"2014-07-17 13:42:31.489";"3";;;;;;;;;;;;;;;;;;;;;;;;;;;;;;;;;;;;;;;;;;;;;;;;;;;;;;;;;;;;;;;;;;;;;;;;;;;;;;;;;;;;;;;
"ClaudiusP";"1993";;"Windows 7";"Rachel's Experiment (SCIAT)";"1.0";"1";"1";"1";"1";"1";"1";"2014-07-17 13:40:13.725";"2014-07-17 14:00:33.179";"1";"0";"1";"0";"0";"29";"28";"module.training_block1.exec-4781.GoNoGo1";"1258";"2014-07-17 13:42:35.295";"NST_correctLoc";"5";"0";"FINISHED";"LEFT";"success";"385";"0";"2014-07-17 13:42:34.032";"1";;;;;;;;;;;;;;;;;;;;;;;;;;;;;;;;;;;;;;;;;;;;;;;;;;;;;;;;;;;;;;;;;;;;;;;;;;;;;;;;;;;;;;;
"ClaudiusP";"1993";;"Windows 7";"Rachel's Experiment (SCIAT)";"1.0";"1";"1";"1";"1";"1";"1";"2014-07-17 13:40:13.725";"2014-07-17 14:00:33.179";"1";"0";"1";"0";"0";"30";"29";"module.training_block1.exec-4781.GoNoGo1";"1257";"2014-07-17 13:42:37.838";"NST_correctLoc";"6";"0";"FINISHED";"LEFT";"success";"954";"0";"2014-07-17 13:42:36.575";"1";;;;;;;;;;;;;;;;;;;;;;;;;;;;;;;;;;;;;;;;;;;;;;;;;;;;;;;;;;;;;;;;;;;;;;;;;;;;;;;;;;;;;;;
"ClaudiusP";"1993";;"Windows 7";"Rachel's Experiment (SCIAT)";"1.0";"1";"1";"1";"1";"1";"1";"2014-07-17 13:40:13.725";"2014-07-17 14:00:33.179";"1";"0";"1";"0";"0";"31";"30";"module.training_block1.exec-4781.GoNoGo1";"1258";"2014-07-17 13:42:40.381";"NST_correctLoc";"16";"1";"FINISHED";"RIGHT";"success";"412";"0";"2014-07-17 13:42:39.117";"2";;;;;;;;;;;;;;;;;;;;;;;;;;;;;;;;;;;;;;;;;;;;;;;;;;;;;;;;;;;;;;;;;;;;;;;;;;;;;;;;;;;;;;;
"ClaudiusP";"1993";;"Windows 7";"Rachel's Experiment (SCIAT)";"1.0";"1";"1";"1";"1";"1";"1";"2014-07-17 13:40:13.725";"2014-07-17 14:00:33.179";"1";"0";"1";"0";"0";"32";"31";"module.training_block1.exec-4781.GoNoGo1";"1258";"2014-07-17 13:42:42.924";"NST_correctLoc";"29";"1";"FINISHED";"RIGHT";"success";"461";"0";"2014-07-17 13:42:41.660";"3";;;;;;;;;;;;;;;;;;;;;;;;;;;;;;;;;;;;;;;;;;;;;;;;;;;;;;;;;;;;;;;;;;;;;;;;;;;;;;;;;;;;;;;
"ClaudiusP";"1993";;"Windows 7";"Rachel's Experiment (SCIAT)";"1.0";"1";"1";"1";"1";"1";"1";"2014-07-17 13:40:13.725";"2014-07-17 14:00:33.179";"1";"0";"1";"0";"0";"33";"32";"module.training_block1.exec-4781.GoNoGo1";"1257";"2014-07-17 13:42:45.467";"NST_correctLoc";"26";"0";"FINISHED";"LEFT";"success";"478";"0";"2014-07-17 13:42:44.203";"3";;;;;;;;;;;;;;;;;;;;;;;;;;;;;;;;;;;;;;;;;;;;;;;;;;;;;;;;;;;;;;;;;;;;;;;;;;;;;;;;;;;;;;;
"ClaudiusP";"1993";;"Windows 7";"Rachel's Experiment (SCIAT)";"1.0";"1";"1";"1";"1";"1";"1";"2014-07-17 13:40:13.725";"2014-07-17 14:00:33.179";"1";"0";"1";"0";"0";"34";"33";"module.training_block1.exec-4781.GoNoGo1";"1258";"2014-07-17 13:42:48.009";"NST_correctLoc";"30";"1";"FINISHED";"RIGHT";"success";"711";"0";"2014-07-17 13:42:46.746";"3";;;;;;;;;;;;;;;;;;;;;;;;;;;;;;;;;;;;;;;;;;;;;;;;;;;;;;;;;;;;;;;;;;;;;;;;;;;;;;;;;;;;;;;
"ClaudiusP";"1993";;"Windows 7";"Rachel's Experiment (SCIAT)";"1.0";"1";"1";"1";"1";"1";"1";"2014-07-17 13:40:13.725";"2014-07-17 14:00:33.179";"1";"0";"1";"0";"0";"35";"34";"module.training_block1.exec-4781.GoNoGo1";"1257";"2014-07-17 13:42:50.552";"NST_correctLoc";"10";"1";"FINISHED";"RIGHT";"success";"736";"0";"2014-07-17 13:42:49.289";"2";;;;;;;;;;;;;;;;;;;;;;;;;;;;;;;;;;;;;;;;;;;;;;;;;;;;;;;;;;;;;;;;;;;;;;;;;;;;;;;;;;;;;;;
"ClaudiusP";"1993";;"Windows 7";"Rachel's Experiment (SCIAT)";"1.0";"1";"1";"1";"1";"1";"1";"2014-07-17 13:40:13.725";"2014-07-17 14:00:33.179";"1";"0";"1";"0";"0";"36";"35";"module.training_block1.exec-4781.GoNoGo1";"1257";"2014-07-17 13:42:53.095";"NST_correctLoc";"20";"0";"FINISHED";"LEFT";"success";"449";"0";"2014-07-17 13:42:51.831";"3";;;;;;;;;;;;;;;;;;;;;;;;;;;;;;;;;;;;;;;;;;;;;;;;;;;;;;;;;;;;;;;;;;;;;;;;;;;;;;;;;;;;;;;
"ClaudiusP";"1993";;"Windows 7";"Rachel's Experiment (SCIAT)";"1.0";"1";"1";"1";"1";"1";"1";"2014-07-17 13:40:13.725";"2014-07-17 14:00:33.179";"1";"0";"1";"0";"0";"37";"36";"module.training_block1.exec-4781.GoNoGo1";"1257";"2014-07-17 13:42:55.638";"NST_correctLoc";"9";"1";"FINISHED";"RIGHT";"success";"611";"0";"2014-07-17 13:42:54.374";"2";;;;;;;;;;;;;;;;;;;;;;;;;;;;;;;;;;;;;;;;;;;;;;;;;;;;;;;;;;;;;;;;;;;;;;;;;;;;;;;;;;;;;;;
"ClaudiusP";"1993";;"Windows 7";"Rachel's Experiment (SCIAT)";"1.0";"1";"1";"1";"1";"1";"1";"2014-07-17 13:40:13.725";"2014-07-17 14:00:33.179";"1";"0";"1";"0";"0";"38";"37";"module.training_block1.exec-4781.GoNoGo1";"1257";"2014-07-17 13:42:58.181";"NST_correctLoc";"14";"1";"FINISHED";"RIGHT";"success";"964";"0";"2014-07-17 13:42:56.917";"2";;;;;;;;;;;;;;;;;;;;;;;;;;;;;;;;;;;;;;;;;;;;;;;;;;;;;;;;;;;;;;;;;;;;;;;;;;;;;;;;;;;;;;;
"ClaudiusP";"1993";;"Windows 7";"Rachel's Experiment (SCIAT)";"1.0";"1";"1";"1";"1";"1";"1";"2014-07-17 13:40:13.725";"2014-07-17 14:00:33.179";"1";"0";"1";"0";"0";"39";"38";"module.training_block1.exec-4781.GoNoGo1";"1257";"2014-07-17 13:43:00.723";"NST_correctLoc";"4";"0";"FINISHED";"LEFT";"success";"381";"0";"2014-07-17 13:42:59.460";"1";;;;;;;;;;;;;;;;;;;;;;;;;;;;;;;;;;;;;;;;;;;;;;;;;;;;;;;;;;;;;;;;;;;;;;;;;;;;;;;;;;;;;;;
"ClaudiusP";"1993";;"Windows 7";"Rachel's Experiment (SCIAT)";"1.0";"1";"1";"1";"1";"1";"1";"2014-07-17 13:40:13.725";"2014-07-17 14:00:33.179";"1";"0";"1";"0";"0";"40";"39";"module.training_block1.exec-4781.GoNoGo1";"1257";"2014-07-17 13:43:03.266";"NST_correctLoc";"2";"0";"FINISHED";"LEFT";"success";"382";"0";"2014-07-17 13:43:02.003";"1";;;;;;;;;;;;;;;;;;;;;;;;;;;;;;;;;;;;;;;;;;;;;;;;;;;;;;;;;;;;;;;;;;;;;;;;;;;;;;;;;;;;;;;
"ClaudiusP";"1993";;"Windows 7";"Rachel's Experiment (SCIAT)";"1.0";"1";"1";"1";"1";"1";"1";"2014-07-17 13:40:13.725";"2014-07-17 14:00:33.179";"1";"0";"1";"0";"0";"41";"40";"module.training_block1.exec-4781.GoNoGo1";"1258";"2014-07-17 13:43:05.809";"NST_correctLoc";"33";"1";"FINISHED";"RIGHT";"success";"420";"0";"2014-07-17 13:43:04.545";"3";;;;;;;;;;;;;;;;;;;;;;;;;;;;;;;;;;;;;;;;;;;;;;;;;;;;;;;;;;;;;;;;;;;;;;;;;;;;;;;;;;;;;;;
"ClaudiusP";"1993";;"Windows 7";"Rachel's Experiment (SCIAT)";"1.0";"1";"1";"1";"1";"1";"1";"2014-07-17 13:40:13.725";"2014-07-17 14:00:33.179";"1";"0";"1";"0";"0";"42";"41";"module.training_block1.exec-4781.GoNoGo1";"1257";"2014-07-17 13:43:08.352";"NST_correctLoc";"8";"1";"FINISHED";"RIGHT";"success";"408";"0";"2014-07-17 13:43:07.088";"1";;;;;;;;;;;;;;;;;;;;;;;;;;;;;;;;;;;;;;;;;;;;;;;;;;;;;;;;;;;;;;;;;;;;;;;;;;;;;;;;;;;;;;;
"ClaudiusP";"1993";;"Windows 7";"Rachel's Experiment (SCIAT)";"1.0";"1";"1";"1";"1";"1";"1";"2014-07-17 13:40:13.725";"2014-07-17 14:00:33.179";"1";"0";"1";"0";"0";"43";"42";"module.training_block1.exec-4781.GoNoGo1";"1258";"2014-07-17 13:43:10.895";"NST_correctLoc";"1";"1";"FINISHED";"RIGHT";"success";"386";"0";"2014-07-17 13:43:09.631";"1";;;;;;;;;;;;;;;;;;;;;;;;;;;;;;;;;;;;;;;;;;;;;;;;;;;;;;;;;;;;;;;;;;;;;;;;;;;;;;;;;;;;;;;
"ClaudiusP";"1993";;"Windows 7";"Rachel's Experiment (SCIAT)";"1.0";"1";"1";"1";"1";"1";"1";"2014-07-17 13:40:13.725";"2014-07-17 14:00:33.179";"1";"0";"1";"0";"0";"44";"43";"module.training_block1.exec-4781.GoNoGo1";"1258";"2014-07-17 13:43:13.437";"NST_correctLoc";"0";"0";"FINISHED";"LEFT";"success";"547";"0";"2014-07-17 13:43:12.174";"1";;;;;;;;;;;;;;;;;;;;;;;;;;;;;;;;;;;;;;;;;;;;;;;;;;;;;;;;;;;;;;;;;;;;;;;;;;;;;;;;;;;;;;;
"ClaudiusP";"1993";;"Windows 7";"Rachel's Experiment (SCIAT)";"1.0";"1";"1";"1";"1";"1";"1";"2014-07-17 13:40:13.725";"2014-07-17 14:00:33.179";"1";"0";"1";"0";"0";"45";"44";"module.training_block1.exec-4781.GoNoGo1";"1257";"2014-07-17 13:43:15.980";"NST_correctLoc";"17";"0";"FINISHED";"LEFT";"success";"580";"0";"2014-07-17 13:43:14.717";"2";;;;;;;;;;;;;;;;;;;;;;;;;;;;;;;;;;;;;;;;;;;;;;;;;;;;;;;;;;;;;;;;;;;;;;;;;;;;;;;;;;;;;;;
"ClaudiusP";"1993";;"Windows 7";"Rachel's Experiment (SCIAT)";"1.0";"1";"1";"1";"1";"1";"1";"2014-07-17 13:40:13.725";"2014-07-17 14:00:33.179";"1";"0";"1";"0";"0";"46";"45";"module.training_block1.exec-4781.GoNoGo1";"1258";"2014-07-17 13:43:18.523";"NST_correctLoc";"35";"0";"FINISHED";"LEFT";"success";"486";"0";"2014-07-17 13:43:17.259";"3";;;;;;;;;;;;;;;;;;;;;;;;;;;;;;;;;;;;;;;;;;;;;;;;;;;;;;;;;;;;;;;;;;;;;;;;;;;;;;;;;;;;;;;
"ClaudiusP";"1993";;"Windows 7";"Rachel's Experiment (SCIAT)";"1.0";"1";"1";"1";"1";"1";"1";"2014-07-17 13:40:13.725";"2014-07-17 14:00:33.179";"1";"0";"1";"0";"0";"47";"46";"module.training_block1.exec-4781.GoNoGo1";"1258";"2014-07-17 13:43:21.066";"NST_correctLoc";"19";"0";"FINISHED";"LEFT";"success";"367";"0";"2014-07-17 13:43:19.802";"3";;;;;;;;;;;;;;;;;;;;;;;;;;;;;;;;;;;;;;;;;;;;;;;;;;;;;;;;;;;;;;;;;;;;;;;;;;;;;;;;;;;;;;;
"ClaudiusP";"1993";;"Windows 7";"Rachel's Experiment (SCIAT)";"1.0";"1";"1";"1";"1";"1";"1";"2014-07-17 13:40:13.725";"2014-07-17 14:00:33.179";"1";"0";"1";"0";"0";"48";"47";"module.training_block1.exec-4781.GoNoGo1";"1257";"2014-07-17 13:43:23.609";"NST_correctLoc";"18";"1";"FINISHED";"RIGHT";"success";"471";"0";"2014-07-17 13:43:22.345";"3";;;;;;;;;;;;;;;;;;;;;;;;;;;;;;;;;;;;;;;;;;;;;;;;;;;;;;;;;;;;;;;;;;;;;;;;;;;;;;;;;;;;;;;
"ClaudiusP";"1993";;"Windows 7";"Rachel's Experiment (SCIAT)";"1.0";"1";"1";"1";"1";"1";"1";"2014-07-17 13:40:13.725";"2014-07-17 14:00:33.179";"1";"0";"1";"0";"0";"49";"48";"module.training_block1.exec-4781.GoNoGo1";"1257";"2014-07-17 13:43:26.151";"NST_correctLoc";"15";"1";"FINISHED";"RIGHT";"success";"400";"0";"2014-07-17 13:43:24.888";"2";;;;;;;;;;;;;;;;;;;;;;;;;;;;;;;;;;;;;;;;;;;;;;;;;;;;;;;;;;;;;;;;;;;;;;;;;;;;;;;;;;;;;;;
"ClaudiusP";"1993";;"Windows 7";"Rachel's Experiment (SCIAT)";"1.0";"1";"1";"1";"1";"1";"1";"2014-07-17 13:40:13.725";"2014-07-17 14:00:33.179";"1";"0";"1";"0";"0";"50";"49";"module.training_block1.exec-4781.GoNoGo1";"1257";"2014-07-17 13:43:28.694";"NST_correctLoc";"21";"0";"FINISHED";"LEFT";"success";"394";"0";"2014-07-17 13:43:27.431";"3";;;;;;;;;;;;;;;;;;;;;;;;;;;;;;;;;;;;;;;;;;;;;;;;;;;;;;;;;;;;;;;;;;;;;;;;;;;;;;;;;;;;;;;
"ClaudiusP";"1993";;"Windows 7";"Rachel's Experiment (SCIAT)";"1.0";"1";"1";"1";"1";"1";"1";"2014-07-17 13:40:13.725";"2014-07-17 14:00:33.179";"1";"0";"1";"0";"0";"51";"50";"module.training_block1.exec-4781.GoNoGo1";"1258";"2014-07-17 13:43:31.237";"NST_correctLoc";"28";"1";"FINISHED";"RIGHT";"success";"603";"0";"2014-07-17 13:43:29.973";"3";;;;;;;;;;;;;;;;;;;;;;;;;;;;;;;;;;;;;;;;;;;;;;;;;;;;;;;;;;;;;;;;;;;;;;;;;;;;;;;;;;;;;;;
"ClaudiusP";"1993";;"Windows 7";"Rachel's Experiment (SCIAT)";"1.0";"1";"1";"1";"1";"1";"1";"2014-07-17 13:40:13.725";"2014-07-17 14:00:33.179";"1";"0";"1";"0";"0";"52";"51";"module.training_block2.exec-9093.GoNoGo2";;;;;;;;;;;;;"1261";"2014-07-17 13:50:41.455";"NST_correctLoc";"27";"1";"FINISHED";"RIGHT";"success";"298";"0";"2014-07-17 13:50:40.191";"3";;;;;;;;;;;;;;;;;;;;;;;;;;;;;;;;;;;;;;;;;;;;;;;;;;;;;;;;;;;;;;;;;;;;;;;;;;;
"ClaudiusP";"1993";;"Windows 7";"Rachel's Experiment (SCIAT)";"1.0";"1";"1";"1";"1";"1";"1";"2014-07-17 13:40:13.725";"2014-07-17 14:00:33.179";"1";"0";"1";"0";"0";"53";"52";"module.training_block2.exec-9093.GoNoGo2";;;;;;;;;;;;;"1257";"2014-07-17 13:50:43.997";"NST_correctLoc";"3";"0";"FINISHED";"LEFT";"success";"367";"0";"2014-07-17 13:50:42.734";"1";;;;;;;;;;;;;;;;;;;;;;;;;;;;;;;;;;;;;;;;;;;;;;;;;;;;;;;;;;;;;;;;;;;;;;;;;;;
"ClaudiusP";"1993";;"Windows 7";"Rachel's Experiment (SCIAT)";"1.0";"1";"1";"1";"1";"1";"1";"2014-07-17 13:40:13.725";"2014-07-17 14:00:33.179";"1";"0";"1";"0";"0";"54";"53";"module.training_block2.exec-9093.GoNoGo2";;;;;;;;;;;;;"1261";"2014-07-17 13:50:46.540";"NST_correctLoc";"22";"0";"FINISHED";"LEFT";"success";"293";"0";"2014-07-17 13:50:45.277";"3";;;;;;;;;;;;;;;;;;;;;;;;;;;;;;;;;;;;;;;;;;;;;;;;;;;;;;;;;;;;;;;;;;;;;;;;;;;
"ClaudiusP";"1993";;"Windows 7";"Rachel's Experiment (SCIAT)";"1.0";"1";"1";"1";"1";"1";"1";"2014-07-17 13:40:13.725";"2014-07-17 14:00:33.179";"1";"0";"1";"0";"0";"55";"54";"module.training_block2.exec-9093.GoNoGo2";;;;;;;;;;;;;"1261";"2014-07-17 13:50:49.083";"NST_correctLoc";"9";"1";"FINISHED";"RIGHT";"success";"398";"0";"2014-07-17 13:50:47.819";"2";;;;;;;;;;;;;;;;;;;;;;;;;;;;;;;;;;;;;;;;;;;;;;;;;;;;;;;;;;;;;;;;;;;;;;;;;;;
"ClaudiusP";"1993";;"Windows 7";"Rachel's Experiment (SCIAT)";"1.0";"1";"1";"1";"1";"1";"1";"2014-07-17 13:40:13.725";"2014-07-17 14:00:33.179";"1";"0";"1";"0";"0";"56";"55";"module.training_block2.exec-9093.GoNoGo2";;;;;;;;;;;;;"1261";"2014-07-17 13:50:51.626";"NST_correctLoc";"0";"0";"FINISHED";"LEFT";"success";"303";"0";"2014-07-17 13:50:50.362";"1";;;;;;;;;;;;;;;;;;;;;;;;;;;;;;;;;;;;;;;;;;;;;;;;;;;;;;;;;;;;;;;;;;;;;;;;;;;
"ClaudiusP";"1993";;"Windows 7";"Rachel's Experiment (SCIAT)";"1.0";"1";"1";"1";"1";"1";"1";"2014-07-17 13:40:13.725";"2014-07-17 14:00:33.179";"1";"0";"1";"0";"0";"57";"56";"module.training_block2.exec-9093.GoNoGo2";;;;;;;;;;;;;"1261";"2014-07-17 13:50:54.169";"NST_correctLoc";"5";"1";"FINISHED";"RIGHT";"success";"336";"0";"2014-07-17 13:50:52.905";"1";;;;;;;;;;;;;;;;;;;;;;;;;;;;;;;;;;;;;;;;;;;;;;;;;;;;;;;;;;;;;;;;;;;;;;;;;;;
"ClaudiusP";"1993";;"Windows 7";"Rachel's Experiment (SCIAT)";"1.0";"1";"1";"1";"1";"1";"1";"2014-07-17 13:40:13.725";"2014-07-17 14:00:33.179";"1";"0";"1";"0";"0";"58";"57";"module.training_block2.exec-9093.GoNoGo2";;;;;;;;;;;;;"1261";"2014-07-17 13:50:56.711";"NST_correctLoc";"2";"0";"FINISHED";"LEFT";"success";"257";"0";"2014-07-17 13:50:55.448";"1";;;;;;;;;;;;;;;;;;;;;;;;;;;;;;;;;;;;;;;;;;;;;;;;;;;;;;;;;;;;;;;;;;;;;;;;;;;
"ClaudiusP";"1993";;"Windows 7";"Rachel's Experiment (SCIAT)";"1.0";"1";"1";"1";"1";"1";"1";"2014-07-17 13:40:13.725";"2014-07-17 14:00:33.179";"1";"0";"1";"0";"0";"59";"58";"module.training_block2.exec-9093.GoNoGo2";;;;;;;;;;;;;"1261";"2014-07-17 13:50:59.254";"NST_correctLoc";"15";"0";"FINISHED";"LEFT";"success";"275";"0";"2014-07-17 13:50:57.991";"2";;;;;;;;;;;;;;;;;;;;;;;;;;;;;;;;;;;;;;;;;;;;;;;;;;;;;;;;;;;;;;;;;;;;;;;;;;;
"ClaudiusP";"1993";;"Windows 7";"Rachel's Experiment (SCIAT)";"1.0";"1";"1";"1";"1";"1";"1";"2014-07-17 13:40:13.725";"2014-07-17 14:00:33.179";"1";"0";"1";"0";"0";"60";"59";"module.training_block2.exec-9093.GoNoGo2";;;;;;;;;;;;;"1261";"2014-07-17 13:51:01.797";"NST_correctLoc";"20";"1";"FINISHED";"RIGHT";"success";"252";"0";"2014-07-17 13:51:00.533";"3";;;;;;;;;;;;;;;;;;;;;;;;;;;;;;;;;;;;;;;;;;;;;;;;;;;;;;;;;;;;;;;;;;;;;;;;;;;
"ClaudiusP";"1993";;"Windows 7";"Rachel's Experiment (SCIAT)";"1.0";"1";"1";"1";"1";"1";"1";"2014-07-17 13:40:13.725";"2014-07-17 14:00:33.179";"1";"0";"1";"0";"0";"61";"60";"module.training_block2.exec-9093.GoNoGo2";;;;;;;;;;;;;"1261";"2014-07-17 13:51:04.340";"NST_correctLoc";"7";"0";"FINISHED";"LEFT";"success";"285";"0";"2014-07-17 13:51:03.076";"1";;;;;;;;;;;;;;;;;;;;;;;;;;;;;;;;;;;;;;;;;;;;;;;;;;;;;;;;;;;;;;;;;;;;;;;;;;;
"ClaudiusP";"1993";;"Windows 7";"Rachel's Experiment (SCIAT)";"1.0";"1";"1";"1";"1";"1";"1";"2014-07-17 13:40:13.725";"2014-07-17 14:00:33.179";"1";"0";"1";"0";"0";"62";"61";"module.training_block2.exec-9093.GoNoGo2";;;;;;;;;;;;;"1261";"2014-07-17 13:51:06.883";"NST_correctLoc";"18";"0";"FINISHED";"LEFT";"success";"262";"0";"2014-07-17 13:51:05.619";"3";;;;;;;;;;;;;;;;;;;;;;;;;;;;;;;;;;;;;;;;;;;;;;;;;;;;;;;;;;;;;;;;;;;;;;;;;;;
"ClaudiusP";"1993";;"Windows 7";"Rachel's Experiment (SCIAT)";"1.0";"1";"1";"1";"1";"1";"1";"2014-07-17 13:40:13.725";"2014-07-17 14:00:33.179";"1";"0";"1";"0";"0";"63";"62";"module.training_block2.exec-9093.GoNoGo2";;;;;;;;;;;;;"1261";"2014-07-17 13:51:09.425";"NST_correctLoc";"28";"0";"FINISHED";"LEFT";"success";"423";"0";"2014-07-17 13:51:08.162";"3";;;;;;;;;;;;;;;;;;;;;;;;;;;;;;;;;;;;;;;;;;;;;;;;;;;;;;;;;;;;;;;;;;;;;;;;;;;
"ClaudiusP";"1993";;"Windows 7";"Rachel's Experiment (SCIAT)";"1.0";"1";"1";"1";"1";"1";"1";"2014-07-17 13:40:13.725";"2014-07-17 14:00:33.179";"1";"0";"1";"0";"0";"64";"63";"module.training_block2.exec-9093.GoNoGo2";;;;;;;;;;;;;"1258";"2014-07-17 13:51:11.953";"NST_correctLoc";"25";"1";"FINISHED";"RIGHT";"success";"428";"0";"2014-07-17 13:51:10.689";"3";;;;;;;;;;;;;;;;;;;;;;;;;;;;;;;;;;;;;;;;;;;;;;;;;;;;;;;;;;;;;;;;;;;;;;;;;;;
"ClaudiusP";"1993";;"Windows 7";"Rachel's Experiment (SCIAT)";"1.0";"1";"1";"1";"1";"1";"1";"2014-07-17 13:40:13.725";"2014-07-17 14:00:33.179";"1";"0";"1";"0";"0";"65";"64";"module.training_block2.exec-9093.GoNoGo2";;;;;;;;;;;;;"1257";"2014-07-17 13:51:14.496";"NST_correctLoc";"12";"0";"FINISHED";"LEFT";"success";"373";"0";"2014-07-17 13:51:13.232";"2";;;;;;;;;;;;;;;;;;;;;;;;;;;;;;;;;;;;;;;;;;;;;;;;;;;;;;;;;;;;;;;;;;;;;;;;;;;
"ClaudiusP";"1993";;"Windows 7";"Rachel's Experiment (SCIAT)";"1.0";"1";"1";"1";"1";"1";"1";"2014-07-17 13:40:13.725";"2014-07-17 14:00:33.179";"1";"0";"1";"0";"0";"66";"65";"module.training_block2.exec-9093.GoNoGo2";;;;;;;;;;;;;"1257";"2014-07-17 13:51:17.038";"NST_correctLoc";"31";"0";"FINISHED";"LEFT";"success";"367";"0";"2014-07-17 13:51:15.775";"3";;;;;;;;;;;;;;;;;;;;;;;;;;;;;;;;;;;;;;;;;;;;;;;;;;;;;;;;;;;;;;;;;;;;;;;;;;;
"ClaudiusP";"1993";;"Windows 7";"Rachel's Experiment (SCIAT)";"1.0";"1";"1";"1";"1";"1";"1";"2014-07-17 13:40:13.725";"2014-07-17 14:00:33.179";"1";"0";"1";"0";"0";"67";"66";"module.training_block2.exec-9093.GoNoGo2";;;;;;;;;;;;;"1258";"2014-07-17 13:51:19.581";"NST_correctLoc";"34";"1";"FINISHED";"RIGHT";"success";"360";"0";"2014-07-17 13:51:18.318";"3";;;;;;;;;;;;;;;;;;;;;;;;;;;;;;;;;;;;;;;;;;;;;;;;;;;;;;;;;;;;;;;;;;;;;;;;;;;
"ClaudiusP";"1993";;"Windows 7";"Rachel's Experiment (SCIAT)";"1.0";"1";"1";"1";"1";"1";"1";"2014-07-17 13:40:13.725";"2014-07-17 14:00:33.179";"1";"0";"1";"0";"0";"68";"67";"module.training_block2.exec-9093.GoNoGo2";;;;;;;;;;;;;"1261";"2014-07-17 13:51:22.124";"NST_correctLoc";"29";"0";"FINISHED";"LEFT";"success";"381";"0";"2014-07-17 13:51:20.860";"3";;;;;;;;;;;;;;;;;;;;;;;;;;;;;;;;;;;;;;;;;;;;;;;;;;;;;;;;;;;;;;;;;;;;;;;;;;;
"ClaudiusP";"1993";;"Windows 7";"Rachel's Experiment (SCIAT)";"1.0";"1";"1";"1";"1";"1";"1";"2014-07-17 13:40:13.725";"2014-07-17 14:00:33.179";"1";"0";"1";"0";"0";"69";"68";"module.training_block2.exec-9093.GoNoGo2";;;;;;;;;;;;;"1257";"2014-07-17 13:51:24.667";"NST_correctLoc";"13";"1";"FINISHED";"RIGHT";"success";"282";"0";"2014-07-17 13:51:23.403";"2";;;;;;;;;;;;;;;;;;;;;;;;;;;;;;;;;;;;;;;;;;;;;;;;;;;;;;;;;;;;;;;;;;;;;;;;;;;
"ClaudiusP";"1993";;"Windows 7";"Rachel's Experiment (SCIAT)";"1.0";"1";"1";"1";"1";"1";"1";"2014-07-17 13:40:13.725";"2014-07-17 14:00:33.179";"1";"0";"1";"0";"0";"70";"69";"module.training_block2.exec-9093.GoNoGo2";;;;;;;;;;;;;"1258";"2014-07-17 13:51:27.210";"NST_correctLoc";"24";"1";"FINISHED";"RIGHT";"success";"388";"0";"2014-07-17 13:51:25.946";"3";;;;;;;;;;;;;;;;;;;;;;;;;;;;;;;;;;;;;;;;;;;;;;;;;;;;;;;;;;;;;;;;;;;;;;;;;;;
"ClaudiusP";"1993";;"Windows 7";"Rachel's Experiment (SCIAT)";"1.0";"1";"1";"1";"1";"1";"1";"2014-07-17 13:40:13.725";"2014-07-17 14:00:33.179";"1";"0";"1";"0";"0";"71";"70";"module.training_block2.exec-9093.GoNoGo2";;;;;;;;;;;;;"1261";"2014-07-17 13:51:29.752";"NST_correctLoc";"16";"1";"FINISHED";"RIGHT";"success";"384";"0";"2014-07-17 13:51:28.489";"2";;;;;;;;;;;;;;;;;;;;;;;;;;;;;;;;;;;;;;;;;;;;;;;;;;;;;;;;;;;;;;;;;;;;;;;;;;;
"ClaudiusP";"1993";;"Windows 7";"Rachel's Experiment (SCIAT)";"1.0";"1";"1";"1";"1";"1";"1";"2014-07-17 13:40:13.725";"2014-07-17 14:00:33.179";"1";"0";"1";"0";"0";"72";"71";"module.training_block2.exec-9093.GoNoGo2";;;;;;;;;;;;;"1261";"2014-07-17 13:51:32.295";"NST_correctLoc";"1";"1";"FINISHED";"RIGHT";"success";"417";"0";"2014-07-17 13:51:31.032";"1";;;;;;;;;;;;;;;;;;;;;;;;;;;;;;;;;;;;;;;;;;;;;;;;;;;;;;;;;;;;;;;;;;;;;;;;;;;
"ClaudiusP";"1993";;"Windows 7";"Rachel's Experiment (SCIAT)";"1.0";"1";"1";"1";"1";"1";"1";"2014-07-17 13:40:13.725";"2014-07-17 14:00:33.179";"1";"0";"1";"0";"0";"73";"72";"module.training_block2.exec-9093.GoNoGo2";;;;;;;;;;;;;"1257";"2014-07-17 13:51:34.838";"NST_correctLoc";"32";"1";"FINISHED";"RIGHT";"success";"358";"0";"2014-07-17 13:51:33.574";"3";;;;;;;;;;;;;;;;;;;;;;;;;;;;;;;;;;;;;;;;;;;;;;;;;;;;;;;;;;;;;;;;;;;;;;;;;;;
"ClaudiusP";"1993";;"Windows 7";"Rachel's Experiment (SCIAT)";"1.0";"1";"1";"1";"1";"1";"1";"2014-07-17 13:40:13.725";"2014-07-17 14:00:33.179";"1";"0";"1";"0";"0";"74";"73";"module.training_block2.exec-9093.GoNoGo2";;;;;;;;;;;;;"1261";"2014-07-17 13:51:37.381";"NST_correctLoc";"10";"0";"FINISHED";"LEFT";"success";"196";"0";"2014-07-17 13:51:36.117";"2";;;;;;;;;;;;;;;;;;;;;;;;;;;;;;;;;;;;;;;;;;;;;;;;;;;;;;;;;;;;;;;;;;;;;;;;;;;
"ClaudiusP";"1993";;"Windows 7";"Rachel's Experiment (SCIAT)";"1.0";"1";"1";"1";"1";"1";"1";"2014-07-17 13:40:13.725";"2014-07-17 14:00:33.179";"1";"0";"1";"0";"0";"75";"74";"module.training_block2.exec-9093.GoNoGo2";;;;;;;;;;;;;"1261";"2014-07-17 13:51:39.924";"NST_correctLoc";"8";"0";"FINISHED";"LEFT";"success";"317";"0";"2014-07-17 13:51:38.660";"1";;;;;;;;;;;;;;;;;;;;;;;;;;;;;;;;;;;;;;;;;;;;;;;;;;;;;;;;;;;;;;;;;;;;;;;;;;;
"ClaudiusP";"1993";;"Windows 7";"Rachel's Experiment (SCIAT)";"1.0";"1";"1";"1";"1";"1";"1";"2014-07-17 13:40:13.725";"2014-07-17 14:00:33.179";"1";"0";"1";"0";"0";"76";"75";"module.training_block2.exec-9093.GoNoGo2";;;;;;;;;;;;;"1261";"2014-07-17 13:51:42.466";"NST_correctLoc";"30";"1";"FINISHED";"RIGHT";"success";"406";"0";"2014-07-17 13:51:41.203";"3";;;;;;;;;;;;;;;;;;;;;;;;;;;;;;;;;;;;;;;;;;;;;;;;;;;;;;;;;;;;;;;;;;;;;;;;;;;
"ClaudiusP";"1993";;"Windows 7";"Rachel's Experiment (SCIAT)";"1.0";"1";"1";"1";"1";"1";"1";"2014-07-17 13:40:13.725";"2014-07-17 14:00:33.179";"1";"0";"1";"0";"0";"77";"76";"module.training_block2.exec-9093.GoNoGo2";;;;;;;;;;;;;"1261";"2014-07-17 13:51:45.009";"NST_correctLoc";"14";"0";"FINISHED";"LEFT";"success";"343";"0";"2014-07-17 13:51:43.746";"2";;;;;;;;;;;;;;;;;;;;;;;;;;;;;;;;;;;;;;;;;;;;;;;;;;;;;;;;;;;;;;;;;;;;;;;;;;;
"ClaudiusP";"1993";;"Windows 7";"Rachel's Experiment (SCIAT)";"1.0";"1";"1";"1";"1";"1";"1";"2014-07-17 13:40:13.725";"2014-07-17 14:00:33.179";"1";"0";"1";"0";"0";"78";"77";"module.training_block2.exec-9093.GoNoGo2";;;;;;;;;;;;;"1261";"2014-07-17 13:51:47.552";"NST_correctLoc";"33";"0";"FINISHED";"LEFT";"success";"377";"0";"2014-07-17 13:51:46.288";"3";;;;;;;;;;;;;;;;;;;;;;;;;;;;;;;;;;;;;;;;;;;;;;;;;;;;;;;;;;;;;;;;;;;;;;;;;;;
"ClaudiusP";"1993";;"Windows 7";"Rachel's Experiment (SCIAT)";"1.0";"1";"1";"1";"1";"1";"1";"2014-07-17 13:40:13.725";"2014-07-17 14:00:33.179";"1";"0";"1";"0";"0";"79";"78";"module.training_block2.exec-9093.GoNoGo2";;;;;;;;;;;;;"1261";"2014-07-17 13:51:50.095";"NST_correctLoc";"19";"0";"FINISHED";"LEFT";"success";"354";"0";"2014-07-17 13:51:48.831";"3";;;;;;;;;;;;;;;;;;;;;;;;;;;;;;;;;;;;;;;;;;;;;;;;;;;;;;;;;;;;;;;;;;;;;;;;;;;
"ClaudiusP";"1993";;"Windows 7";"Rachel's Experiment (SCIAT)";"1.0";"1";"1";"1";"1";"1";"1";"2014-07-17 13:40:13.725";"2014-07-17 14:00:33.179";"1";"0";"1";"0";"0";"80";"79";"module.training_block2.exec-9093.GoNoGo2";;;;;;;;;;;;;"1261";"2014-07-17 13:51:52.653";"NST_correctLoc";"26";"0";"FINISHED";"LEFT";"success";"339";"0";"2014-07-17 13:51:51.390";"3";;;;;;;;;;;;;;;;;;;;;;;;;;;;;;;;;;;;;;;;;;;;;;;;;;;;;;;;;;;;;;;;;;;;;;;;;;;
"ClaudiusP";"1993";;"Windows 7";"Rachel's Experiment (SCIAT)";"1.0";"1";"1";"1";"1";"1";"1";"2014-07-17 13:40:13.725";"2014-07-17 14:00:33.179";"1";"0";"1";"0";"0";"81";"80";"module.training_block2.exec-9093.GoNoGo2";;;;;;;;;;;;;"1261";"2014-07-17 13:51:55.196";"NST_correctLoc";"35";"0";"FINISHED";"LEFT";"success";"300";"0";"2014-07-17 13:51:53.932";"3";;;;;;;;;;;;;;;;;;;;;;;;;;;;;;;;;;;;;;;;;;;;;;;;;;;;;;;;;;;;;;;;;;;;;;;;;;;
"ClaudiusP";"1993";;"Windows 7";"Rachel's Experiment (SCIAT)";"1.0";"1";"1";"1";"1";"1";"1";"2014-07-17 13:40:13.725";"2014-07-17 14:00:33.179";"1";"0";"1";"0";"0";"82";"81";"module.training_block2.exec-9093.GoNoGo2";;;;;;;;;;;;;"1261";"2014-07-17 13:51:57.739";"NST_correctLoc";"11";"0";"FINISHED";"LEFT";"success";"334";"0";"2014-07-17 13:51:56.475";"2";;;;;;;;;;;;;;;;;;;;;;;;;;;;;;;;;;;;;;;;;;;;;;;;;;;;;;;;;;;;;;;;;;;;;;;;;;;
"ClaudiusP";"1993";;"Windows 7";"Rachel's Experiment (SCIAT)";"1.0";"1";"1";"1";"1";"1";"1";"2014-07-17 13:40:13.725";"2014-07-17 14:00:33.179";"1";"0";"1";"0";"0";"83";"82";"module.training_block2.exec-9093.GoNoGo2";;;;;;;;;;;;;"1261";"2014-07-17 13:52:00.282";"NST_correctLoc";"17";"0";"FINISHED";"LEFT";"success";"311";"0";"2014-07-17 13:51:59.018";"2";;;;;;;;;;;;;;;;;;;;;;;;;;;;;;;;;;;;;;;;;;;;;;;;;;;;;;;;;;;;;;;;;;;;;;;;;;;
"ClaudiusP";"1993";;"Windows 7";"Rachel's Experiment (SCIAT)";"1.0";"1";"1";"1";"1";"1";"1";"2014-07-17 13:40:13.725";"2014-07-17 14:00:33.179";"1";"0";"1";"0";"0";"84";"83";"module.training_block2.exec-9093.GoNoGo2";;;;;;;;;;;;;"1261";"2014-07-17 13:52:02.824";"NST_correctLoc";"23";"0";"FINISHED";"LEFT";"success";"344";"0";"2014-07-17 13:52:01.561";"3";;;;;;;;;;;;;;;;;;;;;;;;;;;;;;;;;;;;;;;;;;;;;;;;;;;;;;;;;;;;;;;;;;;;;;;;;;;
"ClaudiusP";"1993";;"Windows 7";"Rachel's Experiment (SCIAT)";"1.0";"1";"1";"1";"1";"1";"1";"2014-07-17 13:40:13.725";"2014-07-17 14:00:33.179";"1";"0";"1";"0";"0";"85";"84";"module.training_block2.exec-9093.GoNoGo2";;;;;;;;;;;;;"1261";"2014-07-17 13:52:05.367";"NST_correctLoc";"6";"0";"FINISHED";"LEFT";"success";"337";"0";"2014-07-17 13:52:04.104";"1";;;;;;;;;;;;;;;;;;;;;;;;;;;;;;;;;;;;;;;;;;;;;;;;;;;;;;;;;;;;;;;;;;;;;;;;;;;
"ClaudiusP";"1993";;"Windows 7";"Rachel's Experiment (SCIAT)";"1.0";"1";"1";"1";"1";"1";"1";"2014-07-17 13:40:13.725";"2014-07-17 14:00:33.179";"1";"0";"1";"0";"0";"86";"85";"module.training_block2.exec-9093.GoNoGo2";;;;;;;;;;;;;"1261";"2014-07-17 13:52:07.910";"NST_correctLoc";"21";"0";"FINISHED";"LEFT";"success";"386";"0";"2014-07-17 13:52:06.646";"3";;;;;;;;;;;;;;;;;;;;;;;;;;;;;;;;;;;;;;;;;;;;;;;;;;;;;;;;;;;;;;;;;;;;;;;;;;;
"ClaudiusP";"1993";;"Windows 7";"Rachel's Experiment (SCIAT)";"1.0";"1";"1";"1";"1";"1";"1";"2014-07-17 13:40:13.725";"2014-07-17 14:00:33.179";"1";"0";"1";"0";"0";"87";"86";"module.training_block2.exec-9093.GoNoGo2";;;;;;;;;;;;;"1261";"2014-07-17 13:52:10.453";"NST_correctLoc";"4";"0";"FINISHED";"LEFT";"success";"380";"0";"2014-07-17 13:52:09.189";"1";;;;;;;;;;;;;;;;;;;;;;;;;;;;;;;;;;;;;;;;;;;;;;;;;;;;;;;;;;;;;;;;;;;;;;;;;;;
"ClaudiusP";"1993";;"Windows 7";"Rachel's Experiment (SCIAT)";"1.0";"1";"1";"1";"1";"1";"1";"2014-07-17 13:40:13.725";"2014-07-17 14:00:33.179";"1";"0";"1";"0";"0";"88";"87";"module.training_block3.exec-5274.GoNoGo3";;;;;;;;;;;;;;;;;;;;;;;;;"1261";"2014-07-17 13:52:20.780";"NST_correctLoc";"22";"1";"FINISHED";"RIGHT";"success";"324";"0";"2014-07-17 13:52:19.516";"3";;;;;;;;;;;;;;;;;;;;;;;;;;;;;;;;;;;;;;;;;;;;;;;;;;;;;;;;;;;;;;;
"ClaudiusP";"1993";;"Windows 7";"Rachel's Experiment (SCIAT)";"1.0";"1";"1";"1";"1";"1";"1";"2014-07-17 13:40:13.725";"2014-07-17 14:00:33.179";"1";"0";"1";"0";"0";"89";"88";"module.training_block3.exec-5274.GoNoGo3";;;;;;;;;;;;;;;;;;;;;;;;;"1261";"2014-07-17 13:52:23.323";"NST_correctLoc";"29";"1";"FINISHED";"RIGHT";"success";"318";"0";"2014-07-17 13:52:22.059";"3";;;;;;;;;;;;;;;;;;;;;;;;;;;;;;;;;;;;;;;;;;;;;;;;;;;;;;;;;;;;;;;
"ClaudiusP";"1993";;"Windows 7";"Rachel's Experiment (SCIAT)";"1.0";"1";"1";"1";"1";"1";"1";"2014-07-17 13:40:13.725";"2014-07-17 14:00:33.179";"1";"0";"1";"0";"0";"90";"89";"module.training_block3.exec-5274.GoNoGo3";;;;;;;;;;;;;;;;;;;;;;;;;"1261";"2014-07-17 13:52:25.866";"NST_correctLoc";"35";"1";"FINISHED";"RIGHT";"success";"383";"0";"2014-07-17 13:52:24.602";"3";;;;;;;;;;;;;;;;;;;;;;;;;;;;;;;;;;;;;;;;;;;;;;;;;;;;;;;;;;;;;;;
"ClaudiusP";"1993";;"Windows 7";"Rachel's Experiment (SCIAT)";"1.0";"1";"1";"1";"1";"1";"1";"2014-07-17 13:40:13.725";"2014-07-17 14:00:33.179";"1";"0";"1";"0";"0";"91";"90";"module.training_block3.exec-5274.GoNoGo3";;;;;;;;;;;;;;;;;;;;;;;;;"1261";"2014-07-17 13:52:28.408";"NST_correctLoc";"6";"0";"FINISHED";"LEFT";"success";"456";"0";"2014-07-17 13:52:27.145";"1";;;;;;;;;;;;;;;;;;;;;;;;;;;;;;;;;;;;;;;;;;;;;;;;;;;;;;;;;;;;;;;
"ClaudiusP";"1993";;"Windows 7";"Rachel's Experiment (SCIAT)";"1.0";"1";"1";"1";"1";"1";"1";"2014-07-17 13:40:13.725";"2014-07-17 14:00:33.179";"1";"0";"1";"0";"0";"92";"91";"module.training_block3.exec-5274.GoNoGo3";;;;;;;;;;;;;;;;;;;;;;;;;"1261";"2014-07-17 13:52:30.951";"NST_correctLoc";"19";"0";"FINISHED";"LEFT";"success";"377";"0";"2014-07-17 13:52:29.688";"3";;;;;;;;;;;;;;;;;;;;;;;;;;;;;;;;;;;;;;;;;;;;;;;;;;;;;;;;;;;;;;;
"ClaudiusP";"1993";;"Windows 7";"Rachel's Experiment (SCIAT)";"1.0";"1";"1";"1";"1";"1";"1";"2014-07-17 13:40:13.725";"2014-07-17 14:00:33.179";"1";"0";"1";"0";"0";"93";"92";"module.training_block3.exec-5274.GoNoGo3";;;;;;;;;;;;;;;;;;;;;;;;;"1261";"2014-07-17 13:52:33.494";"NST_correctLoc";"0";"0";"FINISHED";"LEFT";"success";"394";"0";"2014-07-17 13:52:32.230";"1";;;;;;;;;;;;;;;;;;;;;;;;;;;;;;;;;;;;;;;;;;;;;;;;;;;;;;;;;;;;;;;
"ClaudiusP";"1993";;"Windows 7";"Rachel's Experiment (SCIAT)";"1.0";"1";"1";"1";"1";"1";"1";"2014-07-17 13:40:13.725";"2014-07-17 14:00:33.179";"1";"0";"1";"0";"0";"94";"93";"module.training_block3.exec-5274.GoNoGo3";;;;;;;;;;;;;;;;;;;;;;;;;"1261";"2014-07-17 13:52:36.037";"NST_correctLoc";"20";"0";"FINISHED";"LEFT";"success";"356";"0";"2014-07-17 13:52:34.773";"3";;;;;;;;;;;;;;;;;;;;;;;;;;;;;;;;;;;;;;;;;;;;;;;;;;;;;;;;;;;;;;;
"ClaudiusP";"1993";;"Windows 7";"Rachel's Experiment (SCIAT)";"1.0";"1";"1";"1";"1";"1";"1";"2014-07-17 13:40:13.725";"2014-07-17 14:00:33.179";"1";"0";"1";"0";"0";"95";"94";"module.training_block3.exec-5274.GoNoGo3";;;;;;;;;;;;;;;;;;;;;;;;;"1261";"2014-07-17 13:52:38.580";"NST_correctLoc";"12";"0";"FINISHED";"LEFT";"success";"309";"0";"2014-07-17 13:52:37.316";"2";;;;;;;;;;;;;;;;;;;;;;;;;;;;;;;;;;;;;;;;;;;;;;;;;;;;;;;;;;;;;;;
"ClaudiusP";"1993";;"Windows 7";"Rachel's Experiment (SCIAT)";"1.0";"1";"1";"1";"1";"1";"1";"2014-07-17 13:40:13.725";"2014-07-17 14:00:33.179";"1";"0";"1";"0";"0";"96";"95";"module.training_block3.exec-5274.GoNoGo3";;;;;;;;;;;;;;;;;;;;;;;;;"1261";"2014-07-17 13:52:41.122";"NST_correctLoc";"3";"1";"FINISHED";"RIGHT";"success";"358";"0";"2014-07-17 13:52:39.859";"1";;;;;;;;;;;;;;;;;;;;;;;;;;;;;;;;;;;;;;;;;;;;;;;;;;;;;;;;;;;;;;;
"ClaudiusP";"1993";;"Windows 7";"Rachel's Experiment (SCIAT)";"1.0";"1";"1";"1";"1";"1";"1";"2014-07-17 13:40:13.725";"2014-07-17 14:00:33.179";"1";"0";"1";"0";"0";"97";"96";"module.training_block3.exec-5274.GoNoGo3";;;;;;;;;;;;;;;;;;;;;;;;;"1261";"2014-07-17 13:52:43.665";"NST_correctLoc";"13";"0";"FINISHED";"LEFT";"success";"303";"0";"2014-07-17 13:52:42.402";"2";;;;;;;;;;;;;;;;;;;;;;;;;;;;;;;;;;;;;;;;;;;;;;;;;;;;;;;;;;;;;;;
"ClaudiusP";"1993";;"Windows 7";"Rachel's Experiment (SCIAT)";"1.0";"1";"1";"1";"1";"1";"1";"2014-07-17 13:40:13.725";"2014-07-17 14:00:33.179";"1";"0";"1";"0";"0";"98";"97";"module.training_block3.exec-5274.GoNoGo3";;;;;;;;;;;;;;;;;;;;;;;;;"1261";"2014-07-17 13:52:46.208";"NST_correctLoc";"1";"1";"FINISHED";"RIGHT";"success";"408";"0";"2014-07-17 13:52:44.944";"1";;;;;;;;;;;;;;;;;;;;;;;;;;;;;;;;;;;;;;;;;;;;;;;;;;;;;;;;;;;;;;;
"ClaudiusP";"1993";;"Windows 7";"Rachel's Experiment (SCIAT)";"1.0";"1";"1";"1";"1";"1";"1";"2014-07-17 13:40:13.725";"2014-07-17 14:00:33.179";"1";"0";"1";"0";"0";"99";"98";"module.training_block3.exec-5274.GoNoGo3";;;;;;;;;;;;;;;;;;;;;;;;;"1261";"2014-07-17 13:52:48.751";"NST_correctLoc";"15";"1";"FINISHED";"RIGHT";"success";"369";"0";"2014-07-17 13:52:47.487";"2";;;;;;;;;;;;;;;;;;;;;;;;;;;;;;;;;;;;;;;;;;;;;;;;;;;;;;;;;;;;;;;
"ClaudiusP";"1993";;"Windows 7";"Rachel's Experiment (SCIAT)";"1.0";"1";"1";"1";"1";"1";"1";"2014-07-17 13:40:13.725";"2014-07-17 14:00:33.179";"1";"0";"1";"0";"0";"100";"99";"module.training_block3.exec-5274.GoNoGo3";;;;;;;;;;;;;;;;;;;;;;;;;"1261";"2014-07-17 13:52:51.294";"NST_correctLoc";"27";"0";"FINISHED";"LEFT";"success";"419";"0";"2014-07-17 13:52:50.030";"3";;;;;;;;;;;;;;;;;;;;;;;;;;;;;;;;;;;;;;;;;;;;;;;;;;;;;;;;;;;;;;;
"ClaudiusP";"1993";;"Windows 7";"Rachel's Experiment (SCIAT)";"1.0";"1";"1";"1";"1";"1";"1";"2014-07-17 13:40:13.725";"2014-07-17 14:00:33.179";"1";"0";"1";"0";"0";"101";"100";"module.training_block3.exec-5274.GoNoGo3";;;;;;;;;;;;;;;;;;;;;;;;;"1261";"2014-07-17 13:52:53.836";"NST_correctLoc";"31";"1";"FINISHED";"RIGHT";"success";"396";"0";"2014-07-17 13:52:52.573";"3";;;;;;;;;;;;;;;;;;;;;;;;;;;;;;;;;;;;;;;;;;;;;;;;;;;;;;;;;;;;;;;
"ClaudiusP";"1993";;"Windows 7";"Rachel's Experiment (SCIAT)";"1.0";"1";"1";"1";"1";"1";"1";"2014-07-17 13:40:13.725";"2014-07-17 14:00:33.179";"1";"0";"1";"0";"0";"102";"101";"module.training_block3.exec-5274.GoNoGo3";;;;;;;;;;;;;;;;;;;;;;;;;"1261";"2014-07-17 13:52:56.379";"NST_correctLoc";"16";"1";"FINISHED";"RIGHT";"success";"373";"0";"2014-07-17 13:52:55.116";"2";;;;;;;;;;;;;;;;;;;;;;;;;;;;;;;;;;;;;;;;;;;;;;;;;;;;;;;;;;;;;;;
"ClaudiusP";"1993";;"Windows 7";"Rachel's Experiment (SCIAT)";"1.0";"1";"1";"1";"1";"1";"1";"2014-07-17 13:40:13.725";"2014-07-17 14:00:33.179";"1";"0";"1";"0";"0";"103";"102";"module.training_block3.exec-5274.GoNoGo3";;;;;;;;;;;;;;;;;;;;;;;;;"1261";"2014-07-17 13:52:58.922";"NST_correctLoc";"33";"0";"FINISHED";"LEFT";"success";"334";"0";"2014-07-17 13:52:57.658";"3";;;;;;;;;;;;;;;;;;;;;;;;;;;;;;;;;;;;;;;;;;;;;;;;;;;;;;;;;;;;;;;
"ClaudiusP";"1993";;"Windows 7";"Rachel's Experiment (SCIAT)";"1.0";"1";"1";"1";"1";"1";"1";"2014-07-17 13:40:13.725";"2014-07-17 14:00:33.179";"1";"0";"1";"0";"0";"104";"103";"module.training_block3.exec-5274.GoNoGo3";;;;;;;;;;;;;;;;;;;;;;;;;"1261";"2014-07-17 13:53:01.465";"NST_correctLoc";"5";"0";"FINISHED";"LEFT";"success";"383";"0";"2014-07-17 13:53:00.201";"1";;;;;;;;;;;;;;;;;;;;;;;;;;;;;;;;;;;;;;;;;;;;;;;;;;;;;;;;;;;;;;;
"ClaudiusP";"1993";;"Windows 7";"Rachel's Experiment (SCIAT)";"1.0";"1";"1";"1";"1";"1";"1";"2014-07-17 13:40:13.725";"2014-07-17 14:00:33.179";"1";"0";"1";"0";"0";"105";"104";"module.training_block3.exec-5274.GoNoGo3";;;;;;;;;;;;;;;;;;;;;;;;;"1261";"2014-07-17 13:53:04.008";"NST_correctLoc";"25";"1";"FINISHED";"RIGHT";"success";"400";"0";"2014-07-17 13:53:02.744";"3";;;;;;;;;;;;;;;;;;;;;;;;;;;;;;;;;;;;;;;;;;;;;;;;;;;;;;;;;;;;;;;
"ClaudiusP";"1993";;"Windows 7";"Rachel's Experiment (SCIAT)";"1.0";"1";"1";"1";"1";"1";"1";"2014-07-17 13:40:13.725";"2014-07-17 14:00:33.179";"1";"0";"1";"0";"0";"106";"105";"module.training_block3.exec-5274.GoNoGo3";;;;;;;;;;;;;;;;;;;;;;;;;"1261";"2014-07-17 13:53:06.550";"NST_correctLoc";"14";"1";"FINISHED";"RIGHT";"success";"378";"0";"2014-07-17 13:53:05.287";"2";;;;;;;;;;;;;;;;;;;;;;;;;;;;;;;;;;;;;;;;;;;;;;;;;;;;;;;;;;;;;;;
"ClaudiusP";"1993";;"Windows 7";"Rachel's Experiment (SCIAT)";"1.0";"1";"1";"1";"1";"1";"1";"2014-07-17 13:40:13.725";"2014-07-17 14:00:33.179";"1";"0";"1";"0";"0";"107";"106";"module.training_block3.exec-5274.GoNoGo3";;;;;;;;;;;;;;;;;;;;;;;;;"1261";"2014-07-17 13:53:09.093";"NST_correctLoc";"32";"0";"FINISHED";"LEFT";"success";"339";"0";"2014-07-17 13:53:07.830";"3";;;;;;;;;;;;;;;;;;;;;;;;;;;;;;;;;;;;;;;;;;;;;;;;;;;;;;;;;;;;;;;
"ClaudiusP";"1993";;"Windows 7";"Rachel's Experiment (SCIAT)";"1.0";"1";"1";"1";"1";"1";"1";"2014-07-17 13:40:13.725";"2014-07-17 14:00:33.179";"1";"0";"1";"0";"0";"108";"107";"module.training_block3.exec-5274.GoNoGo3";;;;;;;;;;;;;;;;;;;;;;;;;"1261";"2014-07-17 13:53:11.636";"NST_correctLoc";"11";"0";"FINISHED";"LEFT";"success";"348";"0";"2014-07-17 13:53:10.373";"2";;;;;;;;;;;;;;;;;;;;;;;;;;;;;;;;;;;;;;;;;;;;;;;;;;;;;;;;;;;;;;;
"ClaudiusP";"1993";;"Windows 7";"Rachel's Experiment (SCIAT)";"1.0";"1";"1";"1";"1";"1";"1";"2014-07-17 13:40:13.725";"2014-07-17 14:00:33.179";"1";"0";"1";"0";"0";"109";"108";"module.training_block3.exec-5274.GoNoGo3";;;;;;;;;;;;;;;;;;;;;;;;;"1261";"2014-07-17 13:53:14.179";"NST_correctLoc";"8";"1";"FINISHED";"RIGHT";"success";"349";"0";"2014-07-17 13:53:12.915";"1";;;;;;;;;;;;;;;;;;;;;;;;;;;;;;;;;;;;;;;;;;;;;;;;;;;;;;;;;;;;;;;
"ClaudiusP";"1993";;"Windows 7";"Rachel's Experiment (SCIAT)";"1.0";"1";"1";"1";"1";"1";"1";"2014-07-17 13:40:13.725";"2014-07-17 14:00:33.179";"1";"0";"1";"0";"0";"110";"109";"module.training_block3.exec-5274.GoNoGo3";;;;;;;;;;;;;;;;;;;;;;;;;"1261";"2014-07-17 13:53:16.722";"NST_correctLoc";"9";"1";"FINISHED";"RIGHT";"success";"430";"0";"2014-07-17 13:53:15.458";"2";;;;;;;;;;;;;;;;;;;;;;;;;;;;;;;;;;;;;;;;;;;;;;;;;;;;;;;;;;;;;;;
"ClaudiusP";"1993";;"Windows 7";"Rachel's Experiment (SCIAT)";"1.0";"1";"1";"1";"1";"1";"1";"2014-07-17 13:40:13.725";"2014-07-17 14:00:33.179";"1";"0";"1";"0";"0";"111";"110";"module.training_block3.exec-5274.GoNoGo3";;;;;;;;;;;;;;;;;;;;;;;;;"1261";"2014-07-17 13:53:19.265";"NST_correctLoc";"21";"0";"FINISHED";"LEFT";"success";"320";"0";"2014-07-17 13:53:18.001";"3";;;;;;;;;;;;;;;;;;;;;;;;;;;;;;;;;;;;;;;;;;;;;;;;;;;;;;;;;;;;;;;
"ClaudiusP";"1993";;"Windows 7";"Rachel's Experiment (SCIAT)";"1.0";"1";"1";"1";"1";"1";"1";"2014-07-17 13:40:13.725";"2014-07-17 14:00:33.179";"1";"0";"1";"0";"0";"112";"111";"module.training_block3.exec-5274.GoNoGo3";;;;;;;;;;;;;;;;;;;;;;;;;"1261";"2014-07-17 13:53:21.807";"NST_correctLoc";"24";"1";"FINISHED";"RIGHT";"success";"337";"0";"2014-07-17 13:53:20.544";"3";;;;;;;;;;;;;;;;;;;;;;;;;;;;;;;;;;;;;;;;;;;;;;;;;;;;;;;;;;;;;;;
"ClaudiusP";"1993";;"Windows 7";"Rachel's Experiment (SCIAT)";"1.0";"1";"1";"1";"1";"1";"1";"2014-07-17 13:40:13.725";"2014-07-17 14:00:33.179";"1";"0";"1";"0";"0";"113";"112";"module.training_block3.exec-5274.GoNoGo3";;;;;;;;;;;;;;;;;;;;;;;;;"1258";"2014-07-17 13:53:24.366";"NST_correctLoc";"26";"1";"FINISHED";"RIGHT";"success";"423";"0";"2014-07-17 13:53:23.102";"3";;;;;;;;;;;;;;;;;;;;;;;;;;;;;;;;;;;;;;;;;;;;;;;;;;;;;;;;;;;;;;;
"ClaudiusP";"1993";;"Windows 7";"Rachel's Experiment (SCIAT)";"1.0";"1";"1";"1";"1";"1";"1";"2014-07-17 13:40:13.725";"2014-07-17 14:00:33.179";"1";"0";"1";"0";"0";"114";"113";"module.training_block3.exec-5274.GoNoGo3";;;;;;;;;;;;;;;;;;;;;;;;;"1261";"2014-07-17 13:53:26.909";"NST_correctLoc";"7";"1";"FINISHED";"RIGHT";"success";"363";"0";"2014-07-17 13:53:25.645";"1";;;;;;;;;;;;;;;;;;;;;;;;;;;;;;;;;;;;;;;;;;;;;;;;;;;;;;;;;;;;;;;
"ClaudiusP";"1993";;"Windows 7";"Rachel's Experiment (SCIAT)";"1.0";"1";"1";"1";"1";"1";"1";"2014-07-17 13:40:13.725";"2014-07-17 14:00:33.179";"1";"0";"1";"0";"0";"115";"114";"module.training_block3.exec-5274.GoNoGo3";;;;;;;;;;;;;;;;;;;;;;;;;"1261";"2014-07-17 13:53:29.467";"NST_correctLoc";"10";"0";"FINISHED";"LEFT";"success";"637";"0";"2014-07-17 13:53:28.203";"2";;;;;;;;;;;;;;;;;;;;;;;;;;;;;;;;;;;;;;;;;;;;;;;;;;;;;;;;;;;;;;;
"ClaudiusP";"1993";;"Windows 7";"Rachel's Experiment (SCIAT)";"1.0";"1";"1";"1";"1";"1";"1";"2014-07-17 13:40:13.725";"2014-07-17 14:00:33.179";"1";"0";"1";"0";"0";"116";"115";"module.training_block3.exec-5274.GoNoGo3";;;;;;;;;;;;;;;;;;;;;;;;;"1261";"2014-07-17 13:53:32.010";"NST_correctLoc";"23";"1";"FINISHED";"RIGHT";"success";"326";"0";"2014-07-17 13:53:30.746";"3";;;;;;;;;;;;;;;;;;;;;;;;;;;;;;;;;;;;;;;;;;;;;;;;;;;;;;;;;;;;;;;
"ClaudiusP";"1993";;"Windows 7";"Rachel's Experiment (SCIAT)";"1.0";"1";"1";"1";"1";"1";"1";"2014-07-17 13:40:13.725";"2014-07-17 14:00:33.179";"1";"0";"1";"0";"0";"117";"116";"module.training_block3.exec-5274.GoNoGo3";;;;;;;;;;;;;;;;;;;;;;;;;"1261";"2014-07-17 13:53:34.568";"NST_correctLoc";"34";"0";"FINISHED";"LEFT";"success";"432";"0";"2014-07-17 13:53:33.305";"3";;;;;;;;;;;;;;;;;;;;;;;;;;;;;;;;;;;;;;;;;;;;;;;;;;;;;;;;;;;;;;;
"ClaudiusP";"1993";;"Windows 7";"Rachel's Experiment (SCIAT)";"1.0";"1";"1";"1";"1";"1";"1";"2014-07-17 13:40:13.725";"2014-07-17 14:00:33.179";"1";"0";"1";"0";"0";"118";"117";"module.training_block3.exec-5274.GoNoGo3";;;;;;;;;;;;;;;;;;;;;;;;;"1261";"2014-07-17 13:53:37.111";"NST_correctLoc";"2";"0";"FINISHED";"LEFT";"success";"353";"0";"2014-07-17 13:53:35.847";"1";;;;;;;;;;;;;;;;;;;;;;;;;;;;;;;;;;;;;;;;;;;;;;;;;;;;;;;;;;;;;;;
"ClaudiusP";"1993";;"Windows 7";"Rachel's Experiment (SCIAT)";"1.0";"1";"1";"1";"1";"1";"1";"2014-07-17 13:40:13.725";"2014-07-17 14:00:33.179";"1";"0";"1";"0";"0";"119";"118";"module.training_block3.exec-5274.GoNoGo3";;;;;;;;;;;;;;;;;;;;;;;;;"1261";"2014-07-17 13:53:39.669";"NST_correctLoc";"30";"1";"FINISHED";"RIGHT";"success";"339";"0";"2014-07-17 13:53:38.406";"3";;;;;;;;;;;;;;;;;;;;;;;;;;;;;;;;;;;;;;;;;;;;;;;;;;;;;;;;;;;;;;;
"ClaudiusP";"1993";;"Windows 7";"Rachel's Experiment (SCIAT)";"1.0";"1";"1";"1";"1";"1";"1";"2014-07-17 13:40:13.725";"2014-07-17 14:00:33.179";"1";"0";"1";"0";"0";"120";"119";"module.training_block3.exec-5274.GoNoGo3";;;;;;;;;;;;;;;;;;;;;;;;;"1261";"2014-07-17 13:53:42.212";"NST_correctLoc";"17";"1";"FINISHED";"RIGHT";"success";"348";"0";"2014-07-17 13:53:40.949";"2";;;;;;;;;;;;;;;;;;;;;;;;;;;;;;;;;;;;;;;;;;;;;;;;;;;;;;;;;;;;;;;
"ClaudiusP";"1993";;"Windows 7";"Rachel's Experiment (SCIAT)";"1.0";"1";"1";"1";"1";"1";"1";"2014-07-17 13:40:13.725";"2014-07-17 14:00:33.179";"1";"0";"1";"0";"0";"121";"120";"module.training_block3.exec-5274.GoNoGo3";;;;;;;;;;;;;;;;;;;;;;;;;"1261";"2014-07-17 13:53:44.771";"NST_correctLoc";"18";"1";"FINISHED";"RIGHT";"success";"349";"0";"2014-07-17 13:53:43.507";"3";;;;;;;;;;;;;;;;;;;;;;;;;;;;;;;;;;;;;;;;;;;;;;;;;;;;;;;;;;;;;;;
"ClaudiusP";"1993";;"Windows 7";"Rachel's Experiment (SCIAT)";"1.0";"1";"1";"1";"1";"1";"1";"2014-07-17 13:40:13.725";"2014-07-17 14:00:33.179";"1";"0";"1";"0";"0";"122";"121";"module.training_block3.exec-5274.GoNoGo3";;;;;;;;;;;;;;;;;;;;;;;;;"1261";"2014-07-17 13:53:47.313";"NST_correctLoc";"4";"0";"FINISHED";"LEFT";"success";"310";"0";"2014-07-17 13:53:46.050";"1";;;;;;;;;;;;;;;;;;;;;;;;;;;;;;;;;;;;;;;;;;;;;;;;;;;;;;;;;;;;;;;
"ClaudiusP";"1993";;"Windows 7";"Rachel's Experiment (SCIAT)";"1.0";"1";"1";"1";"1";"1";"1";"2014-07-17 13:40:13.725";"2014-07-17 14:00:33.179";"1";"0";"1";"0";"0";"123";"122";"module.training_block3.exec-5274.GoNoGo3";;;;;;;;;;;;;;;;;;;;;;;;;"1261";"2014-07-17 13:53:49.872";"NST_correctLoc";"28";"1";"FINISHED";"RIGHT";"success";"272";"0";"2014-07-17 13:53:48.608";"3";;;;;;;;;;;;;;;;;;;;;;;;;;;;;;;;;;;;;;;;;;;;;;;;;;;;;;;;;;;;;;;
"ClaudiusP";"1993";;"Windows 7";"Rachel's Experiment (SCIAT)";"1.0";"1";"1";"1";"1";"1";"1";"2014-07-17 13:40:13.725";"2014-07-17 14:00:33.179";"1";"0";"1";"0";"0";"124";"123";"module.training_block4.exec-1059.GoNoGo4";;;;;;;;;;;;;;;;;;;;;;;;;;;;;;;;;;;;;"1261";"2014-07-17 13:54:25.939";"NST_correctLoc";"27";"1";"FINISHED";"RIGHT";"success";"692";"0";"2014-07-17 13:54:24.675";"3";;;;;;;;;;;;;;;;;;;;;;;;;;;;;;;;;;;;;;;;;;;;;;;;;;;
"ClaudiusP";"1993";;"Windows 7";"Rachel's Experiment (SCIAT)";"1.0";"1";"1";"1";"1";"1";"1";"2014-07-17 13:40:13.725";"2014-07-17 14:00:33.179";"1";"0";"1";"0";"0";"125";"124";"module.training_block4.exec-1059.GoNoGo4";;;;;;;;;;;;;;;;;;;;;;;;;;;;;;;;;;;;;"1261";"2014-07-17 13:54:28.482";"NST_correctLoc";"35";"0";"FINISHED";"LEFT";"success";"382";"0";"2014-07-17 13:54:27.218";"3";;;;;;;;;;;;;;;;;;;;;;;;;;;;;;;;;;;;;;;;;;;;;;;;;;;
"ClaudiusP";"1993";;"Windows 7";"Rachel's Experiment (SCIAT)";"1.0";"1";"1";"1";"1";"1";"1";"2014-07-17 13:40:13.725";"2014-07-17 14:00:33.179";"1";"0";"1";"0";"0";"126";"125";"module.training_block4.exec-1059.GoNoGo4";;;;;;;;;;;;;;;;;;;;;;;;;;;;;;;;;;;;;"1261";"2014-07-17 13:54:31.025";"NST_correctLoc";"13";"0";"FINISHED";"LEFT";"success";"327";"0";"2014-07-17 13:54:29.761";"2";;;;;;;;;;;;;;;;;;;;;;;;;;;;;;;;;;;;;;;;;;;;;;;;;;;
"ClaudiusP";"1993";;"Windows 7";"Rachel's Experiment (SCIAT)";"1.0";"1";"1";"1";"1";"1";"1";"2014-07-17 13:40:13.725";"2014-07-17 14:00:33.179";"1";"0";"1";"0";"0";"127";"126";"module.training_block4.exec-1059.GoNoGo4";;;;;;;;;;;;;;;;;;;;;;;;;;;;;;;;;;;;;"1261";"2014-07-17 13:54:33.567";"NST_correctLoc";"32";"0";"FINISHED";"LEFT";"success";"320";"0";"2014-07-17 13:54:32.304";"3";;;;;;;;;;;;;;;;;;;;;;;;;;;;;;;;;;;;;;;;;;;;;;;;;;;
"ClaudiusP";"1993";;"Windows 7";"Rachel's Experiment (SCIAT)";"1.0";"1";"1";"1";"1";"1";"1";"2014-07-17 13:40:13.725";"2014-07-17 14:00:33.179";"1";"0";"1";"0";"0";"128";"127";"module.training_block4.exec-1059.GoNoGo4";;;;;;;;;;;;;;;;;;;;;;;;;;;;;;;;;;;;;"1261";"2014-07-17 13:54:36.110";"NST_correctLoc";"10";"0";"FINISHED";"LEFT";"success";"337";"0";"2014-07-17 13:54:34.847";"2";;;;;;;;;;;;;;;;;;;;;;;;;;;;;;;;;;;;;;;;;;;;;;;;;;;
"ClaudiusP";"1993";;"Windows 7";"Rachel's Experiment (SCIAT)";"1.0";"1";"1";"1";"1";"1";"1";"2014-07-17 13:40:13.725";"2014-07-17 14:00:33.179";"1";"0";"1";"0";"0";"129";"128";"module.training_block4.exec-1059.GoNoGo4";;;;;;;;;;;;;;;;;;;;;;;;;;;;;;;;;;;;;"1262";"2014-07-17 13:54:38.653";"NST_correctLoc";"21";"1";"FINISHED";"RIGHT";"success";"291";"0";"2014-07-17 13:54:37.389";"3";;;;;;;;;;;;;;;;;;;;;;;;;;;;;;;;;;;;;;;;;;;;;;;;;;;
"ClaudiusP";"1993";;"Windows 7";"Rachel's Experiment (SCIAT)";"1.0";"1";"1";"1";"1";"1";"1";"2014-07-17 13:40:13.725";"2014-07-17 14:00:33.179";"1";"0";"1";"0";"0";"130";"129";"module.training_block4.exec-1059.GoNoGo4";;;;;;;;;;;;;;;;;;;;;;;;;;;;;;;;;;;;;"1261";"2014-07-17 13:54:41.196";"NST_correctLoc";"31";"1";"FINISHED";"RIGHT";"success";"436";"0";"2014-07-17 13:54:39.932";"3";;;;;;;;;;;;;;;;;;;;;;;;;;;;;;;;;;;;;;;;;;;;;;;;;;;
"ClaudiusP";"1993";;"Windows 7";"Rachel's Experiment (SCIAT)";"1.0";"1";"1";"1";"1";"1";"1";"2014-07-17 13:40:13.725";"2014-07-17 14:00:33.179";"1";"0";"1";"0";"0";"131";"130";"module.training_block4.exec-1059.GoNoGo4";;;;;;;;;;;;;;;;;;;;;;;;;;;;;;;;;;;;;"1261";"2014-07-17 13:54:43.739";"NST_correctLoc";"26";"1";"FINISHED";"RIGHT";"success";"373";"0";"2014-07-17 13:54:42.475";"3";;;;;;;;;;;;;;;;;;;;;;;;;;;;;;;;;;;;;;;;;;;;;;;;;;;
"ClaudiusP";"1993";;"Windows 7";"Rachel's Experiment (SCIAT)";"1.0";"1";"1";"1";"1";"1";"1";"2014-07-17 13:40:13.725";"2014-07-17 14:00:33.179";"1";"0";"1";"0";"0";"132";"131";"module.training_block4.exec-1059.GoNoGo4";;;;;;;;;;;;;;;;;;;;;;;;;;;;;;;;;;;;;"1262";"2014-07-17 13:54:46.281";"NST_correctLoc";"11";"1";"FINISHED";"RIGHT";"success";"319";"0";"2014-07-17 13:54:45.018";"2";;;;;;;;;;;;;;;;;;;;;;;;;;;;;;;;;;;;;;;;;;;;;;;;;;;
"ClaudiusP";"1993";;"Windows 7";"Rachel's Experiment (SCIAT)";"1.0";"1";"1";"1";"1";"1";"1";"2014-07-17 13:40:13.725";"2014-07-17 14:00:33.179";"1";"0";"1";"0";"0";"133";"132";"module.training_block4.exec-1059.GoNoGo4";;;;;;;;;;;;;;;;;;;;;;;;;;;;;;;;;;;;;"1261";"2014-07-17 13:54:48.809";"NST_correctLoc";"33";"1";"FINISHED";"RIGHT";"success";"407";"0";"2014-07-17 13:54:47.545";"3";;;;;;;;;;;;;;;;;;;;;;;;;;;;;;;;;;;;;;;;;;;;;;;;;;;
"ClaudiusP";"1993";;"Windows 7";"Rachel's Experiment (SCIAT)";"1.0";"1";"1";"1";"1";"1";"1";"2014-07-17 13:40:13.725";"2014-07-17 14:00:33.179";"1";"0";"1";"0";"0";"134";"133";"module.training_block4.exec-1059.GoNoGo4";;;;;;;;;;;;;;;;;;;;;;;;;;;;;;;;;;;;;"1261";"2014-07-17 13:54:51.336";"NST_correctLoc";"9";"0";"FINISHED";"LEFT";"success";"360";"0";"2014-07-17 13:54:50.072";"2";;;;;;;;;;;;;;;;;;;;;;;;;;;;;;;;;;;;;;;;;;;;;;;;;;;
"ClaudiusP";"1993";;"Windows 7";"Rachel's Experiment (SCIAT)";"1.0";"1";"1";"1";"1";"1";"1";"2014-07-17 13:40:13.725";"2014-07-17 14:00:33.179";"1";"0";"1";"0";"0";"135";"134";"module.training_block4.exec-1059.GoNoGo4";;;;;;;;;;;;;;;;;;;;;;;;;;;;;;;;;;;;;"1262";"2014-07-17 13:54:53.863";"NST_correctLoc";"24";"1";"FINISHED";"RIGHT";"success";"304";"0";"2014-07-17 13:54:52.599";"3";;;;;;;;;;;;;;;;;;;;;;;;;;;;;;;;;;;;;;;;;;;;;;;;;;;
"ClaudiusP";"1993";;"Windows 7";"Rachel's Experiment (SCIAT)";"1.0";"1";"1";"1";"1";"1";"1";"2014-07-17 13:40:13.725";"2014-07-17 14:00:33.179";"1";"0";"1";"0";"0";"136";"135";"module.training_block4.exec-1059.GoNoGo4";;;;;;;;;;;;;;;;;;;;;;;;;;;;;;;;;;;;;"1261";"2014-07-17 13:54:56.421";"NST_correctLoc";"28";"0";"FINISHED";"LEFT";"success";"250";"0";"2014-07-17 13:54:55.158";"3";;;;;;;;;;;;;;;;;;;;;;;;;;;;;;;;;;;;;;;;;;;;;;;;;;;
"ClaudiusP";"1993";;"Windows 7";"Rachel's Experiment (SCIAT)";"1.0";"1";"1";"1";"1";"1";"1";"2014-07-17 13:40:13.725";"2014-07-17 14:00:33.179";"1";"0";"1";"0";"0";"137";"136";"module.training_block4.exec-1059.GoNoGo4";;;;;;;;;;;;;;;;;;;;;;;;;;;;;;;;;;;;;"1262";"2014-07-17 13:54:58.949";"NST_correctLoc";"4";"1";"FINISHED";"RIGHT";"success";"275";"0";"2014-07-17 13:54:57.685";"1";;;;;;;;;;;;;;;;;;;;;;;;;;;;;;;;;;;;;;;;;;;;;;;;;;;
"ClaudiusP";"1993";;"Windows 7";"Rachel's Experiment (SCIAT)";"1.0";"1";"1";"1";"1";"1";"1";"2014-07-17 13:40:13.725";"2014-07-17 14:00:33.179";"1";"0";"1";"0";"0";"138";"137";"module.training_block4.exec-1059.GoNoGo4";;;;;;;;;;;;;;;;;;;;;;;;;;;;;;;;;;;;;"1261";"2014-07-17 13:55:01.492";"NST_correctLoc";"23";"1";"FINISHED";"RIGHT";"success";"348";"0";"2014-07-17 13:55:00.228";"3";;;;;;;;;;;;;;;;;;;;;;;;;;;;;;;;;;;;;;;;;;;;;;;;;;;
"ClaudiusP";"1993";;"Windows 7";"Rachel's Experiment (SCIAT)";"1.0";"1";"1";"1";"1";"1";"1";"2014-07-17 13:40:13.725";"2014-07-17 14:00:33.179";"1";"0";"1";"0";"0";"139";"138";"module.training_block4.exec-1059.GoNoGo4";;;;;;;;;;;;;;;;;;;;;;;;;;;;;;;;;;;;;"1261";"2014-07-17 13:55:04.034";"NST_correctLoc";"22";"0";"FINISHED";"LEFT";"success";"341";"0";"2014-07-17 13:55:02.771";"3";;;;;;;;;;;;;;;;;;;;;;;;;;;;;;;;;;;;;;;;;;;;;;;;;;;
"ClaudiusP";"1993";;"Windows 7";"Rachel's Experiment (SCIAT)";"1.0";"1";"1";"1";"1";"1";"1";"2014-07-17 13:40:13.725";"2014-07-17 14:00:33.179";"1";"0";"1";"0";"0";"140";"139";"module.training_block4.exec-1059.GoNoGo4";;;;;;;;;;;;;;;;;;;;;;;;;;;;;;;;;;;;;"1261";"2014-07-17 13:55:06.562";"NST_correctLoc";"0";"1";"FINISHED";"RIGHT";"success";"390";"0";"2014-07-17 13:55:05.298";"1";;;;;;;;;;;;;;;;;;;;;;;;;;;;;;;;;;;;;;;;;;;;;;;;;;;
"ClaudiusP";"1993";;"Windows 7";"Rachel's Experiment (SCIAT)";"1.0";"1";"1";"1";"1";"1";"1";"2014-07-17 13:40:13.725";"2014-07-17 14:00:33.179";"1";"0";"1";"0";"0";"141";"140";"module.training_block4.exec-1059.GoNoGo4";;;;;;;;;;;;;;;;;;;;;;;;;;;;;;;;;;;;;"1261";"2014-07-17 13:55:09.104";"NST_correctLoc";"8";"1";"FINISHED";"RIGHT";"success";"623";"0";"2014-07-17 13:55:07.841";"1";;;;;;;;;;;;;;;;;;;;;;;;;;;;;;;;;;;;;;;;;;;;;;;;;;;
"ClaudiusP";"1993";;"Windows 7";"Rachel's Experiment (SCIAT)";"1.0";"1";"1";"1";"1";"1";"1";"2014-07-17 13:40:13.725";"2014-07-17 14:00:33.179";"1";"0";"1";"0";"0";"142";"141";"module.training_block4.exec-1059.GoNoGo4";;;;;;;;;;;;;;;;;;;;;;;;;;;;;;;;;;;;;"1261";"2014-07-17 13:55:11.647";"NST_correctLoc";"20";"1";"FINISHED";"RIGHT";"success";"312";"0";"2014-07-17 13:55:10.384";"3";;;;;;;;;;;;;;;;;;;;;;;;;;;;;;;;;;;;;;;;;;;;;;;;;;;
"ClaudiusP";"1993";;"Windows 7";"Rachel's Experiment (SCIAT)";"1.0";"1";"1";"1";"1";"1";"1";"2014-07-17 13:40:13.725";"2014-07-17 14:00:33.179";"1";"0";"1";"0";"0";"143";"142";"module.training_block4.exec-1059.GoNoGo4";;;;;;;;;;;;;;;;;;;;;;;;;;;;;;;;;;;;;"1261";"2014-07-17 13:55:14.190";"NST_correctLoc";"14";"1";"FINISHED";"RIGHT";"success";"305";"0";"2014-07-17 13:55:12.926";"2";;;;;;;;;;;;;;;;;;;;;;;;;;;;;;;;;;;;;;;;;;;;;;;;;;;
"ClaudiusP";"1993";;"Windows 7";"Rachel's Experiment (SCIAT)";"1.0";"1";"1";"1";"1";"1";"1";"2014-07-17 13:40:13.725";"2014-07-17 14:00:33.179";"1";"0";"1";"0";"0";"144";"143";"module.training_block4.exec-1059.GoNoGo4";;;;;;;;;;;;;;;;;;;;;;;;;;;;;;;;;;;;;"1261";"2014-07-17 13:55:16.733";"NST_correctLoc";"25";"1";"FINISHED";"RIGHT";"success";"251";"0";"2014-07-17 13:55:15.469";"3";;;;;;;;;;;;;;;;;;;;;;;;;;;;;;;;;;;;;;;;;;;;;;;;;;;
"ClaudiusP";"1993";;"Windows 7";"Rachel's Experiment (SCIAT)";"1.0";"1";"1";"1";"1";"1";"1";"2014-07-17 13:40:13.725";"2014-07-17 14:00:33.179";"1";"0";"1";"0";"0";"145";"144";"module.training_block4.exec-1059.GoNoGo4";;;;;;;;;;;;;;;;;;;;;;;;;;;;;;;;;;;;;"1261";"2014-07-17 13:55:19.276";"NST_correctLoc";"19";"0";"FINISHED";"LEFT";"success";"260";"0";"2014-07-17 13:55:18.012";"3";;;;;;;;;;;;;;;;;;;;;;;;;;;;;;;;;;;;;;;;;;;;;;;;;;;
"ClaudiusP";"1993";;"Windows 7";"Rachel's Experiment (SCIAT)";"1.0";"1";"1";"1";"1";"1";"1";"2014-07-17 13:40:13.725";"2014-07-17 14:00:33.179";"1";"0";"1";"0";"0";"146";"145";"module.training_block4.exec-1059.GoNoGo4";;;;;;;;;;;;;;;;;;;;;;;;;;;;;;;;;;;;;"1261";"2014-07-17 13:55:21.803";"NST_wrongLoc";"2";"0";"FINISHED";"RIGHT";"failure";"76";"0";"2014-07-17 13:55:20.539";"1";;;;;;;;;;;;;;;;;;;;;;;;;;;;;;;;;;;;;;;;;;;;;;;;;;;
"ClaudiusP";"1993";;"Windows 7";"Rachel's Experiment (SCIAT)";"1.0";"1";"1";"1";"1";"1";"1";"2014-07-17 13:40:13.725";"2014-07-17 14:00:33.179";"1";"0";"1";"0";"0";"147";"146";"module.training_block4.exec-1059.GoNoGo4";;;;;;;;;;;;;;;;;;;;;;;;;;;;;;;;;;;;;"1261";"2014-07-17 13:55:24.346";"NST_correctLoc";"17";"1";"FINISHED";"RIGHT";"success";"342";"0";"2014-07-17 13:55:23.082";"2";;;;;;;;;;;;;;;;;;;;;;;;;;;;;;;;;;;;;;;;;;;;;;;;;;;
"ClaudiusP";"1993";;"Windows 7";"Rachel's Experiment (SCIAT)";"1.0";"1";"1";"1";"1";"1";"1";"2014-07-17 13:40:13.725";"2014-07-17 14:00:33.179";"1";"0";"1";"0";"0";"148";"147";"module.training_block4.exec-1059.GoNoGo4";;;;;;;;;;;;;;;;;;;;;;;;;;;;;;;;;;;;;"1261";"2014-07-17 13:55:26.888";"NST_correctLoc";"6";"1";"FINISHED";"RIGHT";"success";"391";"0";"2014-07-17 13:55:25.625";"1";;;;;;;;;;;;;;;;;;;;;;;;;;;;;;;;;;;;;;;;;;;;;;;;;;;
"ClaudiusP";"1993";;"Windows 7";"Rachel's Experiment (SCIAT)";"1.0";"1";"1";"1";"1";"1";"1";"2014-07-17 13:40:13.725";"2014-07-17 14:00:33.179";"1";"0";"1";"0";"0";"149";"148";"module.training_block4.exec-1059.GoNoGo4";;;;;;;;;;;;;;;;;;;;;;;;;;;;;;;;;;;;;"1261";"2014-07-17 13:55:29.431";"NST_correctLoc";"1";"1";"FINISHED";"RIGHT";"success";"408";"0";"2014-07-17 13:55:28.168";"1";;;;;;;;;;;;;;;;;;;;;;;;;;;;;;;;;;;;;;;;;;;;;;;;;;;
"ClaudiusP";"1993";;"Windows 7";"Rachel's Experiment (SCIAT)";"1.0";"1";"1";"1";"1";"1";"1";"2014-07-17 13:40:13.725";"2014-07-17 14:00:33.179";"1";"0";"1";"0";"0";"150";"149";"module.training_block4.exec-1059.GoNoGo4";;;;;;;;;;;;;;;;;;;;;;;;;;;;;;;;;;;;;"1262";"2014-07-17 13:55:31.958";"NST_correctLoc";"7";"0";"FINISHED";"LEFT";"success";"433";"0";"2014-07-17 13:55:30.695";"1";;;;;;;;;;;;;;;;;;;;;;;;;;;;;;;;;;;;;;;;;;;;;;;;;;;
"ClaudiusP";"1993";;"Windows 7";"Rachel's Experiment (SCIAT)";"1.0";"1";"1";"1";"1";"1";"1";"2014-07-17 13:40:13.725";"2014-07-17 14:00:33.179";"1";"0";"1";"0";"0";"151";"150";"module.training_block4.exec-1059.GoNoGo4";;;;;;;;;;;;;;;;;;;;;;;;;;;;;;;;;;;;;"1262";"2014-07-17 13:55:34.486";"NST_miss";"16";"0";"FINISHED";"NONE";"failure";"0";"0";"2014-07-17 13:55:33.222";"2";;;;;;;;;;;;;;;;;;;;;;;;;;;;;;;;;;;;;;;;;;;;;;;;;;;
"ClaudiusP";"1993";;"Windows 7";"Rachel's Experiment (SCIAT)";"1.0";"1";"1";"1";"1";"1";"1";"2014-07-17 13:40:13.725";"2014-07-17 14:00:33.179";"1";"0";"1";"0";"0";"152";"151";"module.training_block4.exec-1059.GoNoGo4";;;;;;;;;;;;;;;;;;;;;;;;;;;;;;;;;;;;;"1261";"2014-07-17 13:55:37.013";"NST_correctLoc";"12";"1";"FINISHED";"RIGHT";"success";"818";"0";"2014-07-17 13:55:35.749";"2";;;;;;;;;;;;;;;;;;;;;;;;;;;;;;;;;;;;;;;;;;;;;;;;;;;
"ClaudiusP";"1993";;"Windows 7";"Rachel's Experiment (SCIAT)";"1.0";"1";"1";"1";"1";"1";"1";"2014-07-17 13:40:13.725";"2014-07-17 14:00:33.179";"1";"0";"1";"0";"0";"153";"152";"module.training_block4.exec-1059.GoNoGo4";;;;;;;;;;;;;;;;;;;;;;;;;;;;;;;;;;;;;"1261";"2014-07-17 13:55:39.540";"NST_correctLoc";"5";"1";"FINISHED";"RIGHT";"success";"379";"0";"2014-07-17 13:55:38.276";"1";;;;;;;;;;;;;;;;;;;;;;;;;;;;;;;;;;;;;;;;;;;;;;;;;;;
"ClaudiusP";"1993";;"Windows 7";"Rachel's Experiment (SCIAT)";"1.0";"1";"1";"1";"1";"1";"1";"2014-07-17 13:40:13.725";"2014-07-17 14:00:33.179";"1";"0";"1";"0";"0";"154";"153";"module.training_block4.exec-1059.GoNoGo4";;;;;;;;;;;;;;;;;;;;;;;;;;;;;;;;;;;;;"1261";"2014-07-17 13:55:42.098";"NST_correctLoc";"18";"1";"FINISHED";"RIGHT";"success";"397";"0";"2014-07-17 13:55:40.835";"3";;;;;;;;;;;;;;;;;;;;;;;;;;;;;;;;;;;;;;;;;;;;;;;;;;;
"ClaudiusP";"1993";;"Windows 7";"Rachel's Experiment (SCIAT)";"1.0";"1";"1";"1";"1";"1";"1";"2014-07-17 13:40:13.725";"2014-07-17 14:00:33.179";"1";"0";"1";"0";"0";"155";"154";"module.training_block4.exec-1059.GoNoGo4";;;;;;;;;;;;;;;;;;;;;;;;;;;;;;;;;;;;;"1262";"2014-07-17 13:55:44.657";"NST_miss";"15";"0";"FINISHED";"NONE";"failure";"0";"0";"2014-07-17 13:55:43.393";"2";;;;;;;;;;;;;;;;;;;;;;;;;;;;;;;;;;;;;;;;;;;;;;;;;;;
"ClaudiusP";"1993";;"Windows 7";"Rachel's Experiment (SCIAT)";"1.0";"1";"1";"1";"1";"1";"1";"2014-07-17 13:40:13.725";"2014-07-17 14:00:33.179";"1";"0";"1";"0";"0";"156";"155";"module.training_block4.exec-1059.GoNoGo4";;;;;;;;;;;;;;;;;;;;;;;;;;;;;;;;;;;;;"1262";"2014-07-17 13:55:47.184";"NST_miss";"34";"0";"FINISHED";"NONE";"failure";"0";"0";"2014-07-17 13:55:45.920";"3";;;;;;;;;;;;;;;;;;;;;;;;;;;;;;;;;;;;;;;;;;;;;;;;;;;
"ClaudiusP";"1993";;"Windows 7";"Rachel's Experiment (SCIAT)";"1.0";"1";"1";"1";"1";"1";"1";"2014-07-17 13:40:13.725";"2014-07-17 14:00:33.179";"1";"0";"1";"0";"0";"157";"156";"module.training_block4.exec-1059.GoNoGo4";;;;;;;;;;;;;;;;;;;;;;;;;;;;;;;;;;;;;"1262";"2014-07-17 13:55:49.742";"NST_correctLoc";"29";"1";"FINISHED";"RIGHT";"success";"353";"0";"2014-07-17 13:55:48.479";"3";;;;;;;;;;;;;;;;;;;;;;;;;;;;;;;;;;;;;;;;;;;;;;;;;;;
"ClaudiusP";"1993";;"Windows 7";"Rachel's Experiment (SCIAT)";"1.0";"1";"1";"1";"1";"1";"1";"2014-07-17 13:40:13.725";"2014-07-17 14:00:33.179";"1";"0";"1";"0";"0";"158";"157";"module.training_block4.exec-1059.GoNoGo4";;;;;;;;;;;;;;;;;;;;;;;;;;;;;;;;;;;;;"1262";"2014-07-17 13:55:52.301";"NST_correctLoc";"3";"1";"FINISHED";"RIGHT";"success";"426";"0";"2014-07-17 13:55:51.037";"1";;;;;;;;;;;;;;;;;;;;;;;;;;;;;;;;;;;;;;;;;;;;;;;;;;;
"ClaudiusP";"1993";;"Windows 7";"Rachel's Experiment (SCIAT)";"1.0";"1";"1";"1";"1";"1";"1";"2014-07-17 13:40:13.725";"2014-07-17 14:00:33.179";"1";"0";"1";"0";"0";"159";"158";"module.training_block4.exec-1059.GoNoGo4";;;;;;;;;;;;;;;;;;;;;;;;;;;;;;;;;;;;;"1262";"2014-07-17 13:55:54.859";"NST_correctLoc";"30";"0";"FINISHED";"LEFT";"success";"388";"0";"2014-07-17 13:55:53.596";"3";;;;;;;;;;;;;;;;;;;;;;;;;;;;;;;;;;;;;;;;;;;;;;;;;;;
"ClaudiusP";"1993";;"Windows 7";"Rachel's Experiment (SCIAT)";"1.0";"1";"1";"1";"1";"1";"1";"2014-07-17 13:40:13.725";"2014-07-17 14:00:33.179";"1";"0";"1";"0";"0";"160";"159";"module.IAT_practice1.exec-7101.IAT_Practice1";;;;;;;;;;;;;;;;;;;;;;;;;;;;;;;;;;;;;;;;;;;;;;;;;;;;;;;;;;;;;;;;;;;;;;;;;;;;;;;;;;;;;;;;;;"1716";"2014-07-17 13:56:25.092";"FINISHED";"NEUTRAL";"success";"1328";"2014-07-17 13:56:23.376";"IAT_UPpractice.csv";"2";"undefined"
"ClaudiusP";"1993";;"Windows 7";"Rachel's Experiment (SCIAT)";"1.0";"1";"1";"1";"1";"1";"1";"2014-07-17 13:40:13.725";"2014-07-17 14:00:33.179";"1";"0";"1";"0";"0";"161";"160";"module.IAT_practice1.exec-7101.IAT_Practice1";;;;;;;;;;;;;;;;;;;;;;;;;;;;;;;;;;;;;;;;;;;;;;;;;;;;;;;;;;;;;;;;;;;;;;;;;;;;;;;;;;;;;;;;;;"1704";"2014-07-17 13:56:26.824";"FINISHED";"NEUTRAL";"success";"1242";"2014-07-17 13:56:25.108";"IAT_UPpractice.csv";"2";"moderate"
"ClaudiusP";"1993";;"Windows 7";"Rachel's Experiment (SCIAT)";"1.0";"1";"1";"1";"1";"1";"1";"2014-07-17 13:40:13.725";"2014-07-17 14:00:33.179";"1";"0";"1";"0";"0";"162";"161";"module.IAT_practice1.exec-7101.IAT_Practice1";;;;;;;;;;;;;;;;;;;;;;;;;;;;;;;;;;;;;;;;;;;;;;;;;;;;;;;;;;;;;;;;;;;;;;;;;;;;;;;;;;;;;;;;;;"1703";"2014-07-17 13:56:28.555";"FINISHED";"NEUTRAL";"success";"1029";"2014-07-17 13:56:26.839";"IAT_UPpractice.csv";"2";"general"
"ClaudiusP";"1993";;"Windows 7";"Rachel's Experiment (SCIAT)";"1.0";"1";"1";"1";"1";"1";"1";"2014-07-17 13:40:13.725";"2014-07-17 14:00:33.179";"1";"0";"1";"0";"0";"163";"162";"module.IAT_practice1.exec-7101.IAT_Practice1";;;;;;;;;;;;;;;;;;;;;;;;;;;;;;;;;;;;;;;;;;;;;;;;;;;;;;;;;;;;;;;;;;;;;;;;;;;;;;;;;;;;;;;;;;"1704";"2014-07-17 13:56:30.287";"FINISHED";"UNPLEASANT";"success";"715";"2014-07-17 13:56:28.571";"IAT_UPpractice.csv";"1";"awful"
"ClaudiusP";"1993";;"Windows 7";"Rachel's Experiment (SCIAT)";"1.0";"1";"1";"1";"1";"1";"1";"2014-07-17 13:40:13.725";"2014-07-17 14:00:33.179";"1";"0";"1";"0";"0";"164";"163";"module.IAT_practice1.exec-7101.IAT_Practice1";;;;;;;;;;;;;;;;;;;;;;;;;;;;;;;;;;;;;;;;;;;;;;;;;;;;;;;;;;;;;;;;;;;;;;;;;;;;;;;;;;;;;;;;;;"3025";"2014-07-17 13:56:33.329";"FINISHED";"NONE";"failure";"0";"2014-07-17 13:56:30.302";"IAT_UPpractice.csv";"1";"awful"
"ClaudiusP";"1993";;"Windows 7";"Rachel's Experiment (SCIAT)";"1.0";"1";"1";"1";"1";"1";"1";"2014-07-17 13:40:13.725";"2014-07-17 14:00:33.179";"1";"0";"1";"0";"0";"165";"164";"module.IAT_practice1.exec-7101.IAT_Practice1";;;;;;;;;;;;;;;;;;;;;;;;;;;;;;;;;;;;;;;;;;;;;;;;;;;;;;;;;;;;;;;;;;;;;;;;;;;;;;;;;;;;;;;;;;"1703";"2014-07-17 13:56:35.076";"FINISHED";"UNPLEASANT";"success";"972";"2014-07-17 13:56:33.360";"IAT_UPpractice.csv";"1";"disgusting"
"ClaudiusP";"1993";;"Windows 7";"Rachel's Experiment (SCIAT)";"1.0";"1";"1";"1";"1";"1";"1";"2014-07-17 13:40:13.725";"2014-07-17 14:00:33.179";"1";"0";"1";"0";"0";"166";"165";"module.IAT_practice1.exec-7101.IAT_Practice1";;;;;;;;;;;;;;;;;;;;;;;;;;;;;;;;;;;;;;;;;;;;;;;;;;;;;;;;;;;;;;;;;;;;;;;;;;;;;;;;;;;;;;;;;;"1714";"2014-07-17 13:56:36.808";"FINISHED";"NEUTRAL";"success";"820";"2014-07-17 13:56:35.092";"IAT_UPpractice.csv";"2";"general"
"ClaudiusP";"1993";;"Windows 7";"Rachel's Experiment (SCIAT)";"1.0";"1";"1";"1";"1";"1";"1";"2014-07-17 13:40:13.725";"2014-07-17 14:00:33.179";"1";"0";"1";"0";"0";"167";"166";"module.IAT_practice1.exec-7101.IAT_Practice1";;;;;;;;;;;;;;;;;;;;;;;;;;;;;;;;;;;;;;;;;;;;;;;;;;;;;;;;;;;;;;;;;;;;;;;;;;;;;;;;;;;;;;;;;;"1704";"2014-07-17 13:56:38.555";"FINISHED";"NEUTRAL";"failure";"446";"2014-07-17 13:56:36.839";"IAT_UPpractice.csv";"1";"bad"
"ClaudiusP";"1993";;"Windows 7";"Rachel's Experiment (SCIAT)";"1.0";"1";"1";"1";"1";"1";"1";"2014-07-17 13:40:13.725";"2014-07-17 14:00:33.179";"1";"0";"1";"0";"0";"168";"167";"module.IAT_practice1.exec-7101.IAT_Practice1";;;;;;;;;;;;;;;;;;;;;;;;;;;;;;;;;;;;;;;;;;;;;;;;;;;;;;;;;;;;;;;;;;;;;;;;;;;;;;;;;;;;;;;;;;"1705";"2014-07-17 13:56:40.286";"FINISHED";"UNPLEASANT";"success";"660";"2014-07-17 13:56:38.570";"IAT_UPpractice.csv";"1";"revolting"
"ClaudiusP";"1993";;"Windows 7";"Rachel's Experiment (SCIAT)";"1.0";"1";"1";"1";"1";"1";"1";"2014-07-17 13:40:13.725";"2014-07-17 14:00:33.179";"1";"0";"1";"0";"0";"169";"168";"module.IAT_practice1.exec-7101.IAT_Practice1";;;;;;;;;;;;;;;;;;;;;;;;;;;;;;;;;;;;;;;;;;;;;;;;;;;;;;;;;;;;;;;;;;;;;;;;;;;;;;;;;;;;;;;;;;"1713";"2014-07-17 13:56:42.034";"FINISHED";"UNPLEASANT";"success";"592";"2014-07-17 13:56:40.318";"IAT_UPpractice.csv";"1";"bad"
"ClaudiusP";"1993";;"Windows 7";"Rachel's Experiment (SCIAT)";"1.0";"1";"1";"1";"1";"1";"1";"2014-07-17 13:40:13.725";"2014-07-17 14:00:33.179";"1";"0";"1";"0";"0";"170";"169";"module.IAT_practice1.exec-7101.IAT_Practice1";;;;;;;;;;;;;;;;;;;;;;;;;;;;;;;;;;;;;;;;;;;;;;;;;;;;;;;;;;;;;;;;;;;;;;;;;;;;;;;;;;;;;;;;;;"1704";"2014-07-17 13:56:43.874";"FINISHED";"NEUTRAL";"success";"942";"2014-07-17 13:56:42.158";"IAT_UPpractice.csv";"2";"adequate"
"ClaudiusP";"1993";;"Windows 7";"Rachel's Experiment (SCIAT)";"1.0";"1";"1";"1";"1";"1";"1";"2014-07-17 13:40:13.725";"2014-07-17 14:00:33.179";"1";"0";"1";"0";"0";"171";"170";"module.IAT_practice1.exec-7101.IAT_Practice1";;;;;;;;;;;;;;;;;;;;;;;;;;;;;;;;;;;;;;;;;;;;;;;;;;;;;;;;;;;;;;;;;;;;;;;;;;;;;;;;;;;;;;;;;;"1714";"2014-07-17 13:56:45.606";"FINISHED";"NEUTRAL";"success";"1205";"2014-07-17 13:56:43.890";"IAT_UPpractice.csv";"2";"adequate"
"ClaudiusP";"1993";;"Windows 7";"Rachel's Experiment (SCIAT)";"1.0";"1";"1";"1";"1";"1";"1";"2014-07-17 13:40:13.725";"2014-07-17 14:00:33.179";"1";"0";"1";"0";"0";"172";"171";"module.IAT_practice1.exec-7101.IAT_Practice1";;;;;;;;;;;;;;;;;;;;;;;;;;;;;;;;;;;;;;;;;;;;;;;;;;;;;;;;;;;;;;;;;;;;;;;;;;;;;;;;;;;;;;;;;;"1707";"2014-07-17 13:56:47.338";"FINISHED";"UNPLEASANT";"success";"738";"2014-07-17 13:56:45.622";"IAT_UPpractice.csv";"1";"horrible"
"ClaudiusP";"1993";;"Windows 7";"Rachel's Experiment (SCIAT)";"1.0";"1";"1";"1";"1";"1";"1";"2014-07-17 13:40:13.725";"2014-07-17 14:00:33.179";"1";"0";"1";"0";"0";"173";"172";"module.IAT_practice1.exec-7101.IAT_Practice1";;;;;;;;;;;;;;;;;;;;;;;;;;;;;;;;;;;;;;;;;;;;;;;;;;;;;;;;;;;;;;;;;;;;;;;;;;;;;;;;;;;;;;;;;;"1705";"2014-07-17 13:56:49.069";"FINISHED";"NEUTRAL";"success";"701";"2014-07-17 13:56:47.353";"IAT_UPpractice.csv";"2";"ordinary"
"ClaudiusP";"1993";;"Windows 7";"Rachel's Experiment (SCIAT)";"1.0";"1";"1";"1";"1";"1";"1";"2014-07-17 13:40:13.725";"2014-07-17 14:00:33.179";"1";"0";"1";"0";"0";"174";"173";"module.IAT_practice1.exec-7101.IAT_Practice1";;;;;;;;;;;;;;;;;;;;;;;;;;;;;;;;;;;;;;;;;;;;;;;;;;;;;;;;;;;;;;;;;;;;;;;;;;;;;;;;;;;;;;;;;;"1705";"2014-07-17 13:56:50.801";"FINISHED";"UNPLEASANT";"success";"841";"2014-07-17 13:56:49.085";"IAT_UPpractice.csv";"1";"nasty"
"ClaudiusP";"1993";;"Windows 7";"Rachel's Experiment (SCIAT)";"1.0";"1";"1";"1";"1";"1";"1";"2014-07-17 13:40:13.725";"2014-07-17 14:00:33.179";"1";"0";"1";"0";"0";"175";"174";"module.IAT_practice1.exec-7101.IAT_Practice1";;;;;;;;;;;;;;;;;;;;;;;;;;;;;;;;;;;;;;;;;;;;;;;;;;;;;;;;;;;;;;;;;;;;;;;;;;;;;;;;;;;;;;;;;;"1705";"2014-07-17 13:56:52.532";"FINISHED";"NEUTRAL";"success";"734";"2014-07-17 13:56:50.816";"IAT_UPpractice.csv";"2";"average"
"ClaudiusP";"1993";;"Windows 7";"Rachel's Experiment (SCIAT)";"1.0";"1";"1";"1";"1";"1";"1";"2014-07-17 13:40:13.725";"2014-07-17 14:00:33.179";"1";"0";"1";"0";"0";"176";"175";"module.IAT_practice1.exec-7101.IAT_Practice1";;;;;;;;;;;;;;;;;;;;;;;;;;;;;;;;;;;;;;;;;;;;;;;;;;;;;;;;;;;;;;;;;;;;;;;;;;;;;;;;;;;;;;;;;;"1714";"2014-07-17 13:56:54.264";"FINISHED";"UNPLEASANT";"success";"683";"2014-07-17 13:56:52.548";"IAT_UPpractice.csv";"1";"horrible"
"ClaudiusP";"1993";;"Windows 7";"Rachel's Experiment (SCIAT)";"1.0";"1";"1";"1";"1";"1";"1";"2014-07-17 13:40:13.725";"2014-07-17 14:00:33.179";"1";"0";"1";"0";"0";"177";"176";"module.IAT_practice1.exec-7101.IAT_Practice1";;;;;;;;;;;;;;;;;;;;;;;;;;;;;;;;;;;;;;;;;;;;;;;;;;;;;;;;;;;;;;;;;;;;;;;;;;;;;;;;;;;;;;;;;;"1715";"2014-07-17 13:56:55.996";"FINISHED";"UNPLEASANT";"success";"592";"2014-07-17 13:56:54.280";"IAT_UPpractice.csv";"1";"revolting"
"ClaudiusP";"1993";;"Windows 7";"Rachel's Experiment (SCIAT)";"1.0";"1";"1";"1";"1";"1";"1";"2014-07-17 13:40:13.725";"2014-07-17 14:00:33.179";"1";"0";"1";"0";"0";"178";"177";"module.IAT_practice1.exec-7101.IAT_Practice1";;;;;;;;;;;;;;;;;;;;;;;;;;;;;;;;;;;;;;;;;;;;;;;;;;;;;;;;;;;;;;;;;;;;;;;;;;;;;;;;;;;;;;;;;;"1714";"2014-07-17 13:56:57.727";"FINISHED";"UNPLEASANT";"success";"532";"2014-07-17 13:56:56.011";"IAT_UPpractice.csv";"1";"nasty"
"ClaudiusP";"1993";;"Windows 7";"Rachel's Experiment (SCIAT)";"1.0";"1";"1";"1";"1";"1";"1";"2014-07-17 13:40:13.725";"2014-07-17 14:00:33.179";"1";"0";"1";"0";"0";"179";"178";"module.IAT_practice1.exec-7101.IAT_Practice1";;;;;;;;;;;;;;;;;;;;;;;;;;;;;;;;;;;;;;;;;;;;;;;;;;;;;;;;;;;;;;;;;;;;;;;;;;;;;;;;;;;;;;;;;;"1703";"2014-07-17 13:56:59.459";"FINISHED";"NEUTRAL";"success";"614";"2014-07-17 13:56:57.743";"IAT_UPpractice.csv";"2";"undefined"
"ClaudiusP";"1993";;"Windows 7";"Rachel's Experiment (SCIAT)";"1.0";"1";"1";"1";"1";"1";"1";"2014-07-17 13:40:13.725";"2014-07-17 14:00:33.179";"1";"0";"1";"0";"0";"180";"179";"module.IAT_practice1.exec-7101.IAT_Practice1";;;;;;;;;;;;;;;;;;;;;;;;;;;;;;;;;;;;;;;;;;;;;;;;;;;;;;;;;;;;;;;;;;;;;;;;;;;;;;;;;;;;;;;;;;"1714";"2014-07-17 13:57:01.191";"FINISHED";"NEUTRAL";"success";"508";"2014-07-17 13:56:59.475";"IAT_UPpractice.csv";"2";"moderate"
"ClaudiusP";"1993";;"Windows 7";"Rachel's Experiment (SCIAT)";"1.0";"1";"1";"1";"1";"1";"1";"2014-07-17 13:40:13.725";"2014-07-17 14:00:33.179";"1";"0";"1";"0";"0";"181";"180";"module.IAT_practice1.exec-7101.IAT_Practice1";;;;;;;;;;;;;;;;;;;;;;;;;;;;;;;;;;;;;;;;;;;;;;;;;;;;;;;;;;;;;;;;;;;;;;;;;;;;;;;;;;;;;;;;;;"1714";"2014-07-17 13:57:02.922";"FINISHED";"NEUTRAL";"success";"329";"2014-07-17 13:57:01.206";"IAT_UPpractice.csv";"2";"average"
"ClaudiusP";"1993";;"Windows 7";"Rachel's Experiment (SCIAT)";"1.0";"1";"1";"1";"1";"1";"1";"2014-07-17 13:40:13.725";"2014-07-17 14:00:33.179";"1";"0";"1";"0";"0";"182";"181";"module.IAT_practice1.exec-7101.IAT_Practice1";;;;;;;;;;;;;;;;;;;;;;;;;;;;;;;;;;;;;;;;;;;;;;;;;;;;;;;;;;;;;;;;;;;;;;;;;;;;;;;;;;;;;;;;;;"1713";"2014-07-17 13:57:04.654";"FINISHED";"NEUTRAL";"success";"525";"2014-07-17 13:57:02.938";"IAT_UPpractice.csv";"2";"ordinary"
"ClaudiusP";"1993";;"Windows 7";"Rachel's Experiment (SCIAT)";"1.0";"1";"1";"1";"1";"1";"1";"2014-07-17 13:40:13.725";"2014-07-17 14:00:33.179";"1";"0";"1";"0";"0";"183";"182";"module.IAT_practice1.exec-7101.IAT_Practice1";;;;;;;;;;;;;;;;;;;;;;;;;;;;;;;;;;;;;;;;;;;;;;;;;;;;;;;;;;;;;;;;;;;;;;;;;;;;;;;;;;;;;;;;;;"1713";"2014-07-17 13:57:06.385";"FINISHED";"NEUTRAL";"failure";"481";"2014-07-17 13:57:04.669";"IAT_UPpractice.csv";"1";"disgusting"
"ClaudiusP";"1993";;"Windows 7";"Rachel's Experiment (SCIAT)";"1.0";"1";"1";"1";"1";"1";"1";"2014-07-17 13:40:13.725";"2014-07-17 14:00:33.179";"1";"0";"1";"0";"0";"184";"183";"module.IAT_Block1.exec-3663.IAT_block1";;;;;;;;;;;;;;;;;;;;;;;;;;;;;;;;;;;;;;;;;;;;;;;;;;;;;;;;;;;;;;;;;;;;;;"1708";"2014-07-17 13:57:17.508";"FINISHED";"UNPLEASANT";"success";"1488";"2014-07-17 13:57:15.792";"IAT_UPUP.csv";"1";"A1";;;;;;;;;;;;;;;;;;;;
"ClaudiusP";"1993";;"Windows 7";"Rachel's Experiment (SCIAT)";"1.0";"1";"1";"1";"1";"1";"1";"2014-07-17 13:40:13.725";"2014-07-17 14:00:33.179";"1";"0";"1";"0";"0";"185";"184";"module.IAT_Block1.exec-3663.IAT_block1";;;;;;;;;;;;;;;;;;;;;;;;;;;;;;;;;;;;;;;;;;;;;;;;;;;;;;;;;;;;;;;;;;;;;;"1714";"2014-07-17 13:57:19.240";"FINISHED";"NEUTRAL";"success";"667";"2014-07-17 13:57:17.524";"IAT_UPUP.csv";"2";"ordinary";;;;;;;;;;;;;;;;;;;;
"ClaudiusP";"1993";;"Windows 7";"Rachel's Experiment (SCIAT)";"1.0";"1";"1";"1";"1";"1";"1";"2014-07-17 13:40:13.725";"2014-07-17 14:00:33.179";"1";"0";"1";"0";"0";"186";"185";"module.IAT_Block1.exec-3663.IAT_block1";;;;;;;;;;;;;;;;;;;;;;;;;;;;;;;;;;;;;;;;;;;;;;;;;;;;;;;;;;;;;;;;;;;;;;"1713";"2014-07-17 13:57:20.987";"FINISHED";"NEUTRAL";"success";"647";"2014-07-17 13:57:19.271";"IAT_UPUP.csv";"2";"moderate";;;;;;;;;;;;;;;;;;;;
"ClaudiusP";"1993";;"Windows 7";"Rachel's Experiment (SCIAT)";"1.0";"1";"1";"1";"1";"1";"1";"2014-07-17 13:40:13.725";"2014-07-17 14:00:33.179";"1";"0";"1";"0";"0";"187";"186";"module.IAT_Block1.exec-3663.IAT_block1";;;;;;;;;;;;;;;;;;;;;;;;;;;;;;;;;;;;;;;;;;;;;;;;;;;;;;;;;;;;;;;;;;;;;;"1714";"2014-07-17 13:57:22.719";"FINISHED";"NEUTRAL";"success";"556";"2014-07-17 13:57:21.003";"IAT_UPUP.csv";"2";"average";;;;;;;;;;;;;;;;;;;;
"ClaudiusP";"1993";;"Windows 7";"Rachel's Experiment (SCIAT)";"1.0";"1";"1";"1";"1";"1";"1";"2014-07-17 13:40:13.725";"2014-07-17 14:00:33.179";"1";"0";"1";"0";"0";"188";"187";"module.IAT_Block1.exec-3663.IAT_block1";;;;;;;;;;;;;;;;;;;;;;;;;;;;;;;;;;;;;;;;;;;;;;;;;;;;;;;;;;;;;;;;;;;;;;"1707";"2014-07-17 13:57:24.466";"FINISHED";"UNPLEASANT";"success";"370";"2014-07-17 13:57:22.750";"IAT_UPUP.csv";"1";"A4";;;;;;;;;;;;;;;;;;;;
"ClaudiusP";"1993";;"Windows 7";"Rachel's Experiment (SCIAT)";"1.0";"1";"1";"1";"1";"1";"1";"2014-07-17 13:40:13.725";"2014-07-17 14:00:33.179";"1";"0";"1";"0";"0";"189";"188";"module.IAT_Block1.exec-3663.IAT_block1";;;;;;;;;;;;;;;;;;;;;;;;;;;;;;;;;;;;;;;;;;;;;;;;;;;;;;;;;;;;;;;;;;;;;;"1708";"2014-07-17 13:57:26.197";"FINISHED";"UNPLEASANT";"success";"456";"2014-07-17 13:57:24.481";"IAT_UPUP.csv";"1";"A2";;;;;;;;;;;;;;;;;;;;
"ClaudiusP";"1993";;"Windows 7";"Rachel's Experiment (SCIAT)";"1.0";"1";"1";"1";"1";"1";"1";"2014-07-17 13:40:13.725";"2014-07-17 14:00:33.179";"1";"0";"1";"0";"0";"190";"189";"module.IAT_Block1.exec-3663.IAT_block1";;;;;;;;;;;;;;;;;;;;;;;;;;;;;;;;;;;;;;;;;;;;;;;;;;;;;;;;;;;;;;;;;;;;;;"1707";"2014-07-17 13:57:27.945";"FINISHED";"UNPLEASANT";"success";"403";"2014-07-17 13:57:26.229";"IAT_UPUP.csv";"1";"A0";;;;;;;;;;;;;;;;;;;;
"ClaudiusP";"1993";;"Windows 7";"Rachel's Experiment (SCIAT)";"1.0";"1";"1";"1";"1";"1";"1";"2014-07-17 13:40:13.725";"2014-07-17 14:00:33.179";"1";"0";"1";"0";"0";"191";"190";"module.IAT_Block1.exec-3663.IAT_block1";;;;;;;;;;;;;;;;;;;;;;;;;;;;;;;;;;;;;;;;;;;;;;;;;;;;;;;;;;;;;;;;;;;;;;"1714";"2014-07-17 13:57:29.676";"FINISHED";"NEUTRAL";"success";"479";"2014-07-17 13:57:27.960";"IAT_UPUP.csv";"2";"undefined";;;;;;;;;;;;;;;;;;;;
"ClaudiusP";"1993";;"Windows 7";"Rachel's Experiment (SCIAT)";"1.0";"1";"1";"1";"1";"1";"1";"2014-07-17 13:40:13.725";"2014-07-17 14:00:33.179";"1";"0";"1";"0";"0";"192";"191";"module.IAT_Block1.exec-3663.IAT_block1";;;;;;;;;;;;;;;;;;;;;;;;;;;;;;;;;;;;;;;;;;;;;;;;;;;;;;;;;;;;;;;;;;;;;;"1713";"2014-07-17 13:57:31.423";"FINISHED";"NEUTRAL";"success";"506";"2014-07-17 13:57:29.707";"IAT_UPUP.csv";"2";"moderate";;;;;;;;;;;;;;;;;;;;
"ClaudiusP";"1993";;"Windows 7";"Rachel's Experiment (SCIAT)";"1.0";"1";"1";"1";"1";"1";"1";"2014-07-17 13:40:13.725";"2014-07-17 14:00:33.179";"1";"0";"1";"0";"0";"193";"192";"module.IAT_Block1.exec-3663.IAT_block1";;;;;;;;;;;;;;;;;;;;;;;;;;;;;;;;;;;;;;;;;;;;;;;;;;;;;;;;;;;;;;;;;;;;;;"1707";"2014-07-17 13:57:33.155";"FINISHED";"UNPLEASANT";"success";"865";"2014-07-17 13:57:31.439";"IAT_UPUP.csv";"1";"A3";;;;;;;;;;;;;;;;;;;;
"ClaudiusP";"1993";;"Windows 7";"Rachel's Experiment (SCIAT)";"1.0";"1";"1";"1";"1";"1";"1";"2014-07-17 13:40:13.725";"2014-07-17 14:00:33.179";"1";"0";"1";"0";"0";"194";"193";"module.IAT_Block1.exec-3663.IAT_block1";;;;;;;;;;;;;;;;;;;;;;;;;;;;;;;;;;;;;;;;;;;;;;;;;;;;;;;;;;;;;;;;;;;;;;"1713";"2014-07-17 13:57:34.902";"FINISHED";"UNPLEASANT";"success";"523";"2014-07-17 13:57:33.186";"IAT_UPUP.csv";"1";"A1";;;;;;;;;;;;;;;;;;;;
"ClaudiusP";"1993";;"Windows 7";"Rachel's Experiment (SCIAT)";"1.0";"1";"1";"1";"1";"1";"1";"2014-07-17 13:40:13.725";"2014-07-17 14:00:33.179";"1";"0";"1";"0";"0";"195";"194";"module.IAT_Block1.exec-3663.IAT_block1";;;;;;;;;;;;;;;;;;;;;;;;;;;;;;;;;;;;;;;;;;;;;;;;;;;;;;;;;;;;;;;;;;;;;;"1714";"2014-07-17 13:57:36.634";"FINISHED";"UNPLEASANT";"success";"450";"2014-07-17 13:57:34.918";"IAT_UPUP.csv";"1";"A0";;;;;;;;;;;;;;;;;;;;
"ClaudiusP";"1993";;"Windows 7";"Rachel's Experiment (SCIAT)";"1.0";"1";"1";"1";"1";"1";"1";"2014-07-17 13:40:13.725";"2014-07-17 14:00:33.179";"1";"0";"1";"0";"0";"196";"195";"module.IAT_Block1.exec-3663.IAT_block1";;;;;;;;;;;;;;;;;;;;;;;;;;;;;;;;;;;;;;;;;;;;;;;;;;;;;;;;;;;;;;;;;;;;;;"1713";"2014-07-17 13:57:38.381";"FINISHED";"NEUTRAL";"success";"541";"2014-07-17 13:57:36.665";"IAT_UPUP.csv";"2";"general";;;;;;;;;;;;;;;;;;;;
"ClaudiusP";"1993";;"Windows 7";"Rachel's Experiment (SCIAT)";"1.0";"1";"1";"1";"1";"1";"1";"2014-07-17 13:40:13.725";"2014-07-17 14:00:33.179";"1";"0";"1";"0";"0";"197";"196";"module.IAT_Block1.exec-3663.IAT_block1";;;;;;;;;;;;;;;;;;;;;;;;;;;;;;;;;;;;;;;;;;;;;;;;;;;;;;;;;;;;;;;;;;;;;;"1714";"2014-07-17 13:57:40.113";"FINISHED";"UNPLEASANT";"success";"411";"2014-07-17 13:57:38.397";"IAT_UPUP.csv";"1";"horrible";;;;;;;;;;;;;;;;;;;;
"ClaudiusP";"1993";;"Windows 7";"Rachel's Experiment (SCIAT)";"1.0";"1";"1";"1";"1";"1";"1";"2014-07-17 13:40:13.725";"2014-07-17 14:00:33.179";"1";"0";"1";"0";"0";"198";"197";"module.IAT_Block1.exec-3663.IAT_block1";;;;;;;;;;;;;;;;;;;;;;;;;;;;;;;;;;;;;;;;;;;;;;;;;;;;;;;;;;;;;;;;;;;;;;"1713";"2014-07-17 13:57:41.860";"FINISHED";"UNPLEASANT";"success";"518";"2014-07-17 13:57:40.144";"IAT_UPUP.csv";"1";"A3";;;;;;;;;;;;;;;;;;;;
"ClaudiusP";"1993";;"Windows 7";"Rachel's Experiment (SCIAT)";"1.0";"1";"1";"1";"1";"1";"1";"2014-07-17 13:40:13.725";"2014-07-17 14:00:33.179";"1";"0";"1";"0";"0";"199";"198";"module.IAT_Block1.exec-3663.IAT_block1";;;;;;;;;;;;;;;;;;;;;;;;;;;;;;;;;;;;;;;;;;;;;;;;;;;;;;;;;;;;;;;;;;;;;;"1714";"2014-07-17 13:57:43.591";"FINISHED";"NEUTRAL";"success";"772";"2014-07-17 13:57:41.875";"IAT_UPUP.csv";"2";"adequate";;;;;;;;;;;;;;;;;;;;
"ClaudiusP";"1993";;"Windows 7";"Rachel's Experiment (SCIAT)";"1.0";"1";"1";"1";"1";"1";"1";"2014-07-17 13:40:13.725";"2014-07-17 14:00:33.179";"1";"0";"1";"0";"0";"200";"199";"module.IAT_Block1.exec-3663.IAT_block1";;;;;;;;;;;;;;;;;;;;;;;;;;;;;;;;;;;;;;;;;;;;;;;;;;;;;;;;;;;;;;;;;;;;;;"1713";"2014-07-17 13:57:45.339";"FINISHED";"NEUTRAL";"success";"591";"2014-07-17 13:57:43.623";"IAT_UPUP.csv";"2";"ordinary";;;;;;;;;;;;;;;;;;;;
"ClaudiusP";"1993";;"Windows 7";"Rachel's Experiment (SCIAT)";"1.0";"1";"1";"1";"1";"1";"1";"2014-07-17 13:40:13.725";"2014-07-17 14:00:33.179";"1";"0";"1";"0";"0";"201";"200";"module.IAT_Block1.exec-3663.IAT_block1";;;;;;;;;;;;;;;;;;;;;;;;;;;;;;;;;;;;;;;;;;;;;;;;;;;;;;;;;;;;;;;;;;;;;;"1706";"2014-07-17 13:57:47.070";"FINISHED";"UNPLEASANT";"success";"469";"2014-07-17 13:57:45.354";"IAT_UPUP.csv";"1";"A5";;;;;;;;;;;;;;;;;;;;
"ClaudiusP";"1993";;"Windows 7";"Rachel's Experiment (SCIAT)";"1.0";"1";"1";"1";"1";"1";"1";"2014-07-17 13:40:13.725";"2014-07-17 14:00:33.179";"1";"0";"1";"0";"0";"202";"201";"module.IAT_Block1.exec-3663.IAT_block1";;;;;;;;;;;;;;;;;;;;;;;;;;;;;;;;;;;;;;;;;;;;;;;;;;;;;;;;;;;;;;;;;;;;;;"1713";"2014-07-17 13:57:48.817";"FINISHED";"NEUTRAL";"failure";"384";"2014-07-17 13:57:47.101";"IAT_UPUP.csv";"1";"A3";;;;;;;;;;;;;;;;;;;;
"ClaudiusP";"1993";;"Windows 7";"Rachel's Experiment (SCIAT)";"1.0";"1";"1";"1";"1";"1";"1";"2014-07-17 13:40:13.725";"2014-07-17 14:00:33.179";"1";"0";"1";"0";"0";"203";"202";"module.IAT_Block1.exec-3663.IAT_block1";;;;;;;;;;;;;;;;;;;;;;;;;;;;;;;;;;;;;;;;;;;;;;;;;;;;;;;;;;;;;;;;;;;;;;"1714";"2014-07-17 13:57:50.549";"FINISHED";"UNPLEASANT";"success";"478";"2014-07-17 13:57:48.833";"IAT_UPUP.csv";"1";"A4";;;;;;;;;;;;;;;;;;;;
"ClaudiusP";"1993";;"Windows 7";"Rachel's Experiment (SCIAT)";"1.0";"1";"1";"1";"1";"1";"1";"2014-07-17 13:40:13.725";"2014-07-17 14:00:33.179";"1";"0";"1";"0";"0";"204";"203";"module.IAT_Block1.exec-3663.IAT_block1";;;;;;;;;;;;;;;;;;;;;;;;;;;;;;;;;;;;;;;;;;;;;;;;;;;;;;;;;;;;;;;;;;;;;;"1713";"2014-07-17 13:57:52.296";"FINISHED";"NEUTRAL";"success";"649";"2014-07-17 13:57:50.580";"IAT_UPUP.csv";"2";"average";;;;;;;;;;;;;;;;;;;;
"ClaudiusP";"1993";;"Windows 7";"Rachel's Experiment (SCIAT)";"1.0";"1";"1";"1";"1";"1";"1";"2014-07-17 13:40:13.725";"2014-07-17 14:00:33.179";"1";"0";"1";"0";"0";"205";"204";"module.IAT_Block1.exec-3663.IAT_block1";;;;;;;;;;;;;;;;;;;;;;;;;;;;;;;;;;;;;;;;;;;;;;;;;;;;;;;;;;;;;;;;;;;;;;"1714";"2014-07-17 13:57:54.028";"FINISHED";"NEUTRAL";"success";"631";"2014-07-17 13:57:52.312";"IAT_UPUP.csv";"2";"average";;;;;;;;;;;;;;;;;;;;
"ClaudiusP";"1993";;"Windows 7";"Rachel's Experiment (SCIAT)";"1.0";"1";"1";"1";"1";"1";"1";"2014-07-17 13:40:13.725";"2014-07-17 14:00:33.179";"1";"0";"1";"0";"0";"206";"205";"module.IAT_Block1.exec-3663.IAT_block1";;;;;;;;;;;;;;;;;;;;;;;;;;;;;;;;;;;;;;;;;;;;;;;;;;;;;;;;;;;;;;;;;;;;;;"1713";"2014-07-17 13:57:55.775";"FINISHED";"NEUTRAL";"failure";"435";"2014-07-17 13:57:54.059";"IAT_UPUP.csv";"1";"nasty";;;;;;;;;;;;;;;;;;;;
"ClaudiusP";"1993";;"Windows 7";"Rachel's Experiment (SCIAT)";"1.0";"1";"1";"1";"1";"1";"1";"2014-07-17 13:40:13.725";"2014-07-17 14:00:33.179";"1";"0";"1";"0";"0";"207";"206";"module.IAT_Block1.exec-3663.IAT_block1";;;;;;;;;;;;;;;;;;;;;;;;;;;;;;;;;;;;;;;;;;;;;;;;;;;;;;;;;;;;;;;;;;;;;;"1714";"2014-07-17 13:57:57.507";"FINISHED";"UNPLEASANT";"failure";"593";"2014-07-17 13:57:55.791";"IAT_UPUP.csv";"2";"average";;;;;;;;;;;;;;;;;;;;
"ClaudiusP";"1993";;"Windows 7";"Rachel's Experiment (SCIAT)";"1.0";"1";"1";"1";"1";"1";"1";"2014-07-17 13:40:13.725";"2014-07-17 14:00:33.179";"1";"0";"1";"0";"0";"208";"207";"module.IAT_Block1.exec-3663.IAT_block1";;;;;;;;;;;;;;;;;;;;;;;;;;;;;;;;;;;;;;;;;;;;;;;;;;;;;;;;;;;;;;;;;;;;;;"1713";"2014-07-17 13:57:59.254";"FINISHED";"UNPLEASANT";"success";"596";"2014-07-17 13:57:57.538";"IAT_UPUP.csv";"1";"A0";;;;;;;;;;;;;;;;;;;;
"ClaudiusP";"1993";;"Windows 7";"Rachel's Experiment (SCIAT)";"1.0";"1";"1";"1";"1";"1";"1";"2014-07-17 13:40:13.725";"2014-07-17 14:00:33.179";"1";"0";"1";"0";"0";"209";"208";"module.IAT_Block1.exec-3663.IAT_block1";;;;;;;;;;;;;;;;;;;;;;;;;;;;;;;;;;;;;;;;;;;;;;;;;;;;;;;;;;;;;;;;;;;;;;"1714";"2014-07-17 13:58:00.985";"FINISHED";"UNPLEASANT";"success";"522";"2014-07-17 13:57:59.269";"IAT_UPUP.csv";"1";"A4";;;;;;;;;;;;;;;;;;;;
"ClaudiusP";"1993";;"Windows 7";"Rachel's Experiment (SCIAT)";"1.0";"1";"1";"1";"1";"1";"1";"2014-07-17 13:40:13.725";"2014-07-17 14:00:33.179";"1";"0";"1";"0";"0";"210";"209";"module.IAT_Block1.exec-3663.IAT_block1";;;;;;;;;;;;;;;;;;;;;;;;;;;;;;;;;;;;;;;;;;;;;;;;;;;;;;;;;;;;;;;;;;;;;;"3023";"2014-07-17 13:58:04.043";"FINISHED";"NONE";"failure";"0";"2014-07-17 13:58:01.017";"IAT_UPUP.csv";"1";"awful";;;;;;;;;;;;;;;;;;;;
"ClaudiusP";"1993";;"Windows 7";"Rachel's Experiment (SCIAT)";"1.0";"1";"1";"1";"1";"1";"1";"2014-07-17 13:40:13.725";"2014-07-17 14:00:33.179";"1";"0";"1";"0";"0";"211";"210";"module.IAT_Block1.exec-3663.IAT_block1";;;;;;;;;;;;;;;;;;;;;;;;;;;;;;;;;;;;;;;;;;;;;;;;;;;;;;;;;;;;;;;;;;;;;;"1715";"2014-07-17 13:58:05.775";"FINISHED";"UNPLEASANT";"success";"645";"2014-07-17 13:58:04.059";"IAT_UPUP.csv";"1";"A3";;;;;;;;;;;;;;;;;;;;
"ClaudiusP";"1993";;"Windows 7";"Rachel's Experiment (SCIAT)";"1.0";"1";"1";"1";"1";"1";"1";"2014-07-17 13:40:13.725";"2014-07-17 14:00:33.179";"1";"0";"1";"0";"0";"212";"211";"module.IAT_Block1.exec-3663.IAT_block1";;;;;;;;;;;;;;;;;;;;;;;;;;;;;;;;;;;;;;;;;;;;;;;;;;;;;;;;;;;;;;;;;;;;;;"1714";"2014-07-17 13:58:07.506";"FINISHED";"UNPLEASANT";"success";"536";"2014-07-17 13:58:05.790";"IAT_UPUP.csv";"1";"bad";;;;;;;;;;;;;;;;;;;;
"ClaudiusP";"1993";;"Windows 7";"Rachel's Experiment (SCIAT)";"1.0";"1";"1";"1";"1";"1";"1";"2014-07-17 13:40:13.725";"2014-07-17 14:00:33.179";"1";"0";"1";"0";"0";"213";"212";"module.IAT_Block1.exec-3663.IAT_block1";;;;;;;;;;;;;;;;;;;;;;;;;;;;;;;;;;;;;;;;;;;;;;;;;;;;;;;;;;;;;;;;;;;;;;"1715";"2014-07-17 13:58:09.238";"FINISHED";"UNPLEASANT";"success";"494";"2014-07-17 13:58:07.522";"IAT_UPUP.csv";"1";"A2";;;;;;;;;;;;;;;;;;;;
"ClaudiusP";"1993";;"Windows 7";"Rachel's Experiment (SCIAT)";"1.0";"1";"1";"1";"1";"1";"1";"2014-07-17 13:40:13.725";"2014-07-17 14:00:33.179";"1";"0";"1";"0";"0";"214";"213";"module.IAT_Block1.exec-3663.IAT_block1";;;;;;;;;;;;;;;;;;;;;;;;;;;;;;;;;;;;;;;;;;;;;;;;;;;;;;;;;;;;;;;;;;;;;;"1706";"2014-07-17 13:58:10.969";"FINISHED";"UNPLEASANT";"success";"610";"2014-07-17 13:58:09.253";"IAT_UPUP.csv";"1";"horrible";;;;;;;;;;;;;;;;;;;;
"ClaudiusP";"1993";;"Windows 7";"Rachel's Experiment (SCIAT)";"1.0";"1";"1";"1";"1";"1";"1";"2014-07-17 13:40:13.725";"2014-07-17 14:00:33.179";"1";"0";"1";"0";"0";"215";"214";"module.IAT_Block1.exec-3663.IAT_block1";;;;;;;;;;;;;;;;;;;;;;;;;;;;;;;;;;;;;;;;;;;;;;;;;;;;;;;;;;;;;;;;;;;;;;"1713";"2014-07-17 13:58:12.717";"FINISHED";"NEUTRAL";"success";"757";"2014-07-17 13:58:11.001";"IAT_UPUP.csv";"2";"ordinary";;;;;;;;;;;;;;;;;;;;
"ClaudiusP";"1993";;"Windows 7";"Rachel's Experiment (SCIAT)";"1.0";"1";"1";"1";"1";"1";"1";"2014-07-17 13:40:13.725";"2014-07-17 14:00:33.179";"1";"0";"1";"0";"0";"216";"215";"module.IAT_Block1.exec-3663.IAT_block1";;;;;;;;;;;;;;;;;;;;;;;;;;;;;;;;;;;;;;;;;;;;;;;;;;;;;;;;;;;;;;;;;;;;;;"1715";"2014-07-17 13:58:14.448";"FINISHED";"NEUTRAL";"success";"611";"2014-07-17 13:58:12.732";"IAT_UPUP.csv";"2";"moderate";;;;;;;;;;;;;;;;;;;;
"ClaudiusP";"1993";;"Windows 7";"Rachel's Experiment (SCIAT)";"1.0";"1";"1";"1";"1";"1";"1";"2014-07-17 13:40:13.725";"2014-07-17 14:00:33.179";"1";"0";"1";"0";"0";"217";"216";"module.IAT_Block1.exec-3663.IAT_block1";;;;;;;;;;;;;;;;;;;;;;;;;;;;;;;;;;;;;;;;;;;;;;;;;;;;;;;;;;;;;;;;;;;;;;"1712";"2014-07-17 13:58:16.195";"FINISHED";"UNPLEASANT";"success";"398";"2014-07-17 13:58:14.479";"IAT_UPUP.csv";"1";"A5";;;;;;;;;;;;;;;;;;;;
"ClaudiusP";"1993";;"Windows 7";"Rachel's Experiment (SCIAT)";"1.0";"1";"1";"1";"1";"1";"1";"2014-07-17 13:40:13.725";"2014-07-17 14:00:33.179";"1";"0";"1";"0";"0";"218";"217";"module.IAT_Block1.exec-3663.IAT_block1";;;;;;;;;;;;;;;;;;;;;;;;;;;;;;;;;;;;;;;;;;;;;;;;;;;;;;;;;;;;;;;;;;;;;;"1714";"2014-07-17 13:58:17.927";"FINISHED";"NEUTRAL";"success";"612";"2014-07-17 13:58:16.211";"IAT_UPUP.csv";"2";"general";;;;;;;;;;;;;;;;;;;;
"ClaudiusP";"1993";;"Windows 7";"Rachel's Experiment (SCIAT)";"1.0";"1";"1";"1";"1";"1";"1";"2014-07-17 13:40:13.725";"2014-07-17 14:00:33.179";"1";"0";"1";"0";"0";"219";"218";"module.IAT_Block1.exec-3663.IAT_block1";;;;;;;;;;;;;;;;;;;;;;;;;;;;;;;;;;;;;;;;;;;;;;;;;;;;;;;;;;;;;;;;;;;;;;"1713";"2014-07-17 13:58:19.674";"FINISHED";"NEUTRAL";"success";"1183";"2014-07-17 13:58:17.958";"IAT_UPUP.csv";"2";"average";;;;;;;;;;;;;;;;;;;;
"ClaudiusP";"1993";;"Windows 7";"Rachel's Experiment (SCIAT)";"1.0";"1";"1";"1";"1";"1";"1";"2014-07-17 13:40:13.725";"2014-07-17 14:00:33.179";"1";"0";"1";"0";"0";"220";"219";"module.IAT_Block1.exec-3663.IAT_block1";;;;;;;;;;;;;;;;;;;;;;;;;;;;;;;;;;;;;;;;;;;;;;;;;;;;;;;;;;;;;;;;;;;;;;"1714";"2014-07-17 13:58:21.406";"FINISHED";"UNPLEASANT";"success";"773";"2014-07-17 13:58:19.690";"IAT_UPUP.csv";"1";"awful";;;;;;;;;;;;;;;;;;;;
"ClaudiusP";"1993";;"Windows 7";"Rachel's Experiment (SCIAT)";"1.0";"1";"1";"1";"1";"1";"1";"2014-07-17 13:40:13.725";"2014-07-17 14:00:33.179";"1";"0";"1";"0";"0";"221";"220";"module.IAT_Block1.exec-3663.IAT_block1";;;;;;;;;;;;;;;;;;;;;;;;;;;;;;;;;;;;;;;;;;;;;;;;;;;;;;;;;;;;;;;;;;;;;;"1715";"2014-07-17 13:58:23.137";"FINISHED";"UNPLEASANT";"success";"482";"2014-07-17 13:58:21.421";"IAT_UPUP.csv";"1";"A1";;;;;;;;;;;;;;;;;;;;
"ClaudiusP";"1993";;"Windows 7";"Rachel's Experiment (SCIAT)";"1.0";"1";"1";"1";"1";"1";"1";"2014-07-17 13:40:13.725";"2014-07-17 14:00:33.179";"1";"0";"1";"0";"0";"222";"221";"module.IAT_Block1.exec-3663.IAT_block1";;;;;;;;;;;;;;;;;;;;;;;;;;;;;;;;;;;;;;;;;;;;;;;;;;;;;;;;;;;;;;;;;;;;;;"1715";"2014-07-17 13:58:24.869";"FINISHED";"UNPLEASANT";"success";"406";"2014-07-17 13:58:23.153";"IAT_UPUP.csv";"1";"A5";;;;;;;;;;;;;;;;;;;;
"ClaudiusP";"1993";;"Windows 7";"Rachel's Experiment (SCIAT)";"1.0";"1";"1";"1";"1";"1";"1";"2014-07-17 13:40:13.725";"2014-07-17 14:00:33.179";"1";"0";"1";"0";"0";"223";"222";"module.IAT_Block1.exec-3663.IAT_block1";;;;;;;;;;;;;;;;;;;;;;;;;;;;;;;;;;;;;;;;;;;;;;;;;;;;;;;;;;;;;;;;;;;;;;"1713";"2014-07-17 13:58:26.616";"FINISHED";"NEUTRAL";"failure";"385";"2014-07-17 13:58:24.900";"IAT_UPUP.csv";"1";"bad";;;;;;;;;;;;;;;;;;;;
"ClaudiusP";"1993";;"Windows 7";"Rachel's Experiment (SCIAT)";"1.0";"1";"1";"1";"1";"1";"1";"2014-07-17 13:40:13.725";"2014-07-17 14:00:33.179";"1";"0";"1";"0";"0";"224";"223";"module.IAT_Block1.exec-3663.IAT_block1";;;;;;;;;;;;;;;;;;;;;;;;;;;;;;;;;;;;;;;;;;;;;;;;;;;;;;;;;;;;;;;;;;;;;;"1715";"2014-07-17 13:58:28.348";"FINISHED";"NEUTRAL";"success";"976";"2014-07-17 13:58:26.632";"IAT_UPUP.csv";"2";"undefined";;;;;;;;;;;;;;;;;;;;
