"user.name";"user.yearOfBirth";"user.sex";"user.osName";"module.name";"module.version";"module.online.subject.code";"module.online.study.id";"module.online.module.nr";"module.online.group.nr";"session.id";"session.index";"session.startTime";"session.endTime";"session.completed";"session.node-4028.conditionType";"session.node-5486.blockOrder";"session.node-5486.IATorder";"session.node-5486.keyOrder";"trial.id";"trial.index";"trial.name";"trial.GoNoGo1.durationTime";"trial.GoNoGo1.endTime";"trial.GoNoGo1.Error Type";"trial.GoNoGo1.icon";"trial.GoNoGo1.location";"trial.GoNoGo1.outcome";"trial.GoNoGo1.response";"trial.GoNoGo1.result";"trial.GoNoGo1.RT";"trial.GoNoGo1.signal";"trial.GoNoGo1.startTime";"trial.GoNoGo1.stimulus type";"trial.GoNoGo2.durationTime";"trial.GoNoGo2.endTime";"trial.GoNoGo2.Error Type";"trial.GoNoGo2.icon";"trial.GoNoGo2.location";"trial.GoNoGo2.outcome";"trial.GoNoGo2.response";"trial.GoNoGo2.result";"trial.GoNoGo2.RT";"trial.GoNoGo2.signal";"trial.GoNoGo2.startTime";"trial.GoNoGo2.stimulus type";"trial.GoNoGo3.durationTime";"trial.GoNoGo3.endTime";"trial.GoNoGo3.Error Type";"trial.GoNoGo3.icon";"trial.GoNoGo3.location";"trial.GoNoGo3.outcome";"trial.GoNoGo3.response";"trial.GoNoGo3.result";"trial.GoNoGo3.RT";"trial.GoNoGo3.signal";"trial.GoNoGo3.startTime";"trial.GoNoGo3.stimulus type";"trial.GoNoGo4.durationTime";"trial.GoNoGo4.endTime";"trial.GoNoGo4.Error Type";"trial.GoNoGo4.icon";"trial.GoNoGo4.location";"trial.GoNoGo4.outcome";"trial.GoNoGo4.response";"trial.GoNoGo4.result";"trial.GoNoGo4.RT";"trial.GoNoGo4.signal";"trial.GoNoGo4.startTime";"trial.GoNoGo4.stimulus type";"trial.GoNoGo_Practice.durationTime";"trial.GoNoGo_Practice.endTime";"trial.GoNoGo_Practice.icon";"trial.GoNoGo_Practice.location";"trial.GoNoGo_Practice.outcome";"trial.GoNoGo_Practice.response";"trial.GoNoGo_Practice.result";"trial.GoNoGo_Practice.RT";"trial.GoNoGo_Practice.signal";"trial.GoNoGo_Practice.startTime";"trial.GoNoGo_Practice.stimulus type";"trial.GoNoGo_Tutorial.durationTime";"trial.GoNoGo_Tutorial.endTime";"trial.GoNoGo_Tutorial.icon";"trial.GoNoGo_Tutorial.location";"trial.GoNoGo_Tutorial.outcome";"trial.GoNoGo_Tutorial.response";"trial.GoNoGo_Tutorial.result";"trial.GoNoGo_Tutorial.RT";"trial.GoNoGo_Tutorial.signal";"trial.GoNoGo_Tutorial.startTime";"trial.IAT_block1.durationTime";"trial.IAT_block1.endTime";"trial.IAT_block1.outcome";"trial.IAT_block1.response";"trial.IAT_block1.result";"trial.IAT_block1.RT";"trial.IAT_block1.startTime";"trial.IAT_block1.Stimfile";"trial.IAT_block1.stimType";"trial.IAT_block1.word";"trial.IAT_block2.durationTime";"trial.IAT_block2.endTime";"trial.IAT_block2.outcome";"trial.IAT_block2.response";"trial.IAT_block2.result";"trial.IAT_block2.RT";"trial.IAT_block2.startTime";"trial.IAT_block2.Stimfile";"trial.IAT_block2.stimType";"trial.IAT_block2.word";"trial.IAT_Practice1.durationTime";"trial.IAT_Practice1.endTime";"trial.IAT_Practice1.outcome";"trial.IAT_Practice1.response";"trial.IAT_Practice1.result";"trial.IAT_Practice1.RT";"trial.IAT_Practice1.startTime";"trial.IAT_Practice1.Stimfile";"trial.IAT_Practice1.stimType";"trial.IAT_Practice1.word"
"vermillionaire";"1986";;"Windows 7";"Rachel's Experiment (SCIAT)";"1.0";"1";"1";"1";"1";"1";"1";"2014-09-11 13:45:03.781";"2014-09-11 14:00:16.748";"1";"1";"1";"0";"1";"1";"0";"module.GoNoGotutorial.exec-6741.GoNoGo_Tutorial";;;;;;;;;;;;;;;;;;;;;;;;;;;;;;;;;;;;;;;;;;;;;;;;;;;;;;;;;;;;"4000";"2014-09-11 13:46:17.452";"leftResponse";"0";"FINISHED";"LEFT";"success";"494";"0";"2014-09-11 13:46:13.451";;;;;;;;;;;;;;;;;;;;;;;;;;;;;;
"vermillionaire";"1986";;"Windows 7";"Rachel's Experiment (SCIAT)";"1.0";"1";"1";"1";"1";"1";"1";"2014-09-11 13:45:03.781";"2014-09-11 14:00:16.748";"1";"1";"1";"0";"1";"2";"1";"module.GoNoGotutorial.exec-6741.GoNoGo_Tutorial";;;;;;;;;;;;;;;;;;;;;;;;;;;;;;;;;;;;;;;;;;;;;;;;;;;;;;;;;;;;"3999";"2014-09-11 13:46:22.755";"rightResponse";"1";"FINISHED";"RIGHT";"success";"1125";"0";"2014-09-11 13:46:18.755";;;;;;;;;;;;;;;;;;;;;;;;;;;;;;
"vermillionaire";"1986";;"Windows 7";"Rachel's Experiment (SCIAT)";"1.0";"1";"1";"1";"1";"1";"1";"2014-09-11 13:45:03.781";"2014-09-11 14:00:16.748";"1";"1";"1";"0";"1";"3";"2";"module.GoNoGotutorial.exec-6741.GoNoGo_Tutorial";;;;;;;;;;;;;;;;;;;;;;;;;;;;;;;;;;;;;;;;;;;;;;;;;;;;;;;;;;;;"3999";"2014-09-11 13:46:28.056";"signalResponse";"0";"FINISHED";"NONE";"success";"0";"1";"2014-09-11 13:46:24.056";;;;;;;;;;;;;;;;;;;;;;;;;;;;;;
"vermillionaire";"1986";;"Windows 7";"Rachel's Experiment (SCIAT)";"1.0";"1";"1";"1";"1";"1";"1";"2014-09-11 13:45:03.781";"2014-09-11 14:00:16.748";"1";"1";"1";"0";"1";"4";"3";"module.GoNoGopractice.exec-1912.GoNoGo_Practice";;;;;;;;;;;;;;;;;;;;;;;;;;;;;;;;;;;;;;;;;;;;;;;;;"1957";"2014-09-11 13:46:35.755";"18";"0";"FINISHED";"LEFT";"success";"387";"0";"2014-09-11 13:46:33.798";"3";;;;;;;;;;;;;;;;;;;;;;;;;;;;;;;;;;;;;;;;
"vermillionaire";"1986";;"Windows 7";"Rachel's Experiment (SCIAT)";"1.0";"1";"1";"1";"1";"1";"1";"2014-09-11 13:45:03.781";"2014-09-11 14:00:16.748";"1";"1";"1";"0";"1";"5";"4";"module.GoNoGopractice.exec-1912.GoNoGo_Practice";;;;;;;;;;;;;;;;;;;;;;;;;;;;;;;;;;;;;;;;;;;;;;;;;"1950";"2014-09-11 13:46:38.995";"21";"1";"FINISHED";"RIGHT";"success";"389";"0";"2014-09-11 13:46:37.043";"3";;;;;;;;;;;;;;;;;;;;;;;;;;;;;;;;;;;;;;;;
"vermillionaire";"1986";;"Windows 7";"Rachel's Experiment (SCIAT)";"1.0";"1";"1";"1";"1";"1";"1";"2014-09-11 13:45:03.781";"2014-09-11 14:00:16.748";"1";"1";"1";"0";"1";"6";"5";"module.GoNoGopractice.exec-1912.GoNoGo_Practice";;;;;;;;;;;;;;;;;;;;;;;;;;;;;;;;;;;;;;;;;;;;;;;;;"1954";"2014-09-11 13:46:42.236";"14";"1";"FINISHED";"RIGHT";"failure";"720";"1";"2014-09-11 13:46:40.281";"2";;;;;;;;;;;;;;;;;;;;;;;;;;;;;;;;;;;;;;;;
"vermillionaire";"1986";;"Windows 7";"Rachel's Experiment (SCIAT)";"1.0";"1";"1";"1";"1";"1";"1";"2014-09-11 13:45:03.781";"2014-09-11 14:00:16.748";"1";"1";"1";"0";"1";"7";"6";"module.GoNoGopractice.exec-1912.GoNoGo_Practice";;;;;;;;;;;;;;;;;;;;;;;;;;;;;;;;;;;;;;;;;;;;;;;;;"1955";"2014-09-11 13:46:45.474";"26";"0";"FINISHED";"NONE";"failure";"0";"0";"2014-09-11 13:46:43.519";"3";;;;;;;;;;;;;;;;;;;;;;;;;;;;;;;;;;;;;;;;
"vermillionaire";"1986";;"Windows 7";"Rachel's Experiment (SCIAT)";"1.0";"1";"1";"1";"1";"1";"1";"2014-09-11 13:45:03.781";"2014-09-11 14:00:16.748";"1";"1";"1";"0";"1";"8";"7";"module.GoNoGopractice.exec-1912.GoNoGo_Practice";;;;;;;;;;;;;;;;;;;;;;;;;;;;;;;;;;;;;;;;;;;;;;;;;"1950";"2014-09-11 13:46:48.705";"2";"0";"FINISHED";"LEFT";"success";"647";"0";"2014-09-11 13:46:46.753";"1";;;;;;;;;;;;;;;;;;;;;;;;;;;;;;;;;;;;;;;;
"vermillionaire";"1986";;"Windows 7";"Rachel's Experiment (SCIAT)";"1.0";"1";"1";"1";"1";"1";"1";"2014-09-11 13:45:03.781";"2014-09-11 14:00:16.748";"1";"1";"1";"0";"1";"9";"8";"module.GoNoGopractice.exec-1912.GoNoGo_Practice";;;;;;;;;;;;;;;;;;;;;;;;;;;;;;;;;;;;;;;;;;;;;;;;;"1952";"2014-09-11 13:46:51.942";"30";"0";"FINISHED";"NONE";"success";"0";"1";"2014-09-11 13:46:49.990";"3";;;;;;;;;;;;;;;;;;;;;;;;;;;;;;;;;;;;;;;;
"vermillionaire";"1986";;"Windows 7";"Rachel's Experiment (SCIAT)";"1.0";"1";"1";"1";"1";"1";"1";"2014-09-11 13:45:03.781";"2014-09-11 14:00:16.748";"1";"1";"1";"0";"1";"10";"9";"module.GoNoGopractice.exec-1912.GoNoGo_Practice";;;;;;;;;;;;;;;;;;;;;;;;;;;;;;;;;;;;;;;;;;;;;;;;;"1951";"2014-09-11 13:46:55.173";"6";"1";"FINISHED";"RIGHT";"failure";"563";"1";"2014-09-11 13:46:53.222";"1";;;;;;;;;;;;;;;;;;;;;;;;;;;;;;;;;;;;;;;;
"vermillionaire";"1986";;"Windows 7";"Rachel's Experiment (SCIAT)";"1.0";"1";"1";"1";"1";"1";"1";"2014-09-11 13:45:03.781";"2014-09-11 14:00:16.748";"1";"1";"1";"0";"1";"11";"10";"module.GoNoGopractice.exec-1912.GoNoGo_Practice";;;;;;;;;;;;;;;;;;;;;;;;;;;;;;;;;;;;;;;;;;;;;;;;;"1949";"2014-09-11 13:46:58.417";"34";"0";"FINISHED";"LEFT";"success";"869";"0";"2014-09-11 13:46:56.467";"3";;;;;;;;;;;;;;;;;;;;;;;;;;;;;;;;;;;;;;;;
"vermillionaire";"1986";;"Windows 7";"Rachel's Experiment (SCIAT)";"1.0";"1";"1";"1";"1";"1";"1";"2014-09-11 13:45:03.781";"2014-09-11 14:00:16.748";"1";"1";"1";"0";"1";"12";"11";"module.GoNoGopractice.exec-1912.GoNoGo_Practice";;;;;;;;;;;;;;;;;;;;;;;;;;;;;;;;;;;;;;;;;;;;;;;;;"1950";"2014-09-11 13:47:01.657";"23";"1";"FINISHED";"RIGHT";"success";"671";"0";"2014-09-11 13:46:59.706";"3";;;;;;;;;;;;;;;;;;;;;;;;;;;;;;;;;;;;;;;;
"vermillionaire";"1986";;"Windows 7";"Rachel's Experiment (SCIAT)";"1.0";"1";"1";"1";"1";"1";"1";"2014-09-11 13:45:03.781";"2014-09-11 14:00:16.748";"1";"1";"1";"0";"1";"13";"12";"module.GoNoGopractice.exec-1912.GoNoGo_Practice";;;;;;;;;;;;;;;;;;;;;;;;;;;;;;;;;;;;;;;;;;;;;;;;;"1951";"2014-09-11 13:47:04.897";"13";"0";"FINISHED";"LEFT";"failure";"520";"1";"2014-09-11 13:47:02.946";"2";;;;;;;;;;;;;;;;;;;;;;;;;;;;;;;;;;;;;;;;
"vermillionaire";"1986";;"Windows 7";"Rachel's Experiment (SCIAT)";"1.0";"1";"1";"1";"1";"1";"1";"2014-09-11 13:45:03.781";"2014-09-11 14:00:16.748";"1";"1";"1";"0";"1";"14";"13";"module.GoNoGopractice.exec-1912.GoNoGo_Practice";;;;;;;;;;;;;;;;;;;;;;;;;;;;;;;;;;;;;;;;;;;;;;;;;"1950";"2014-09-11 13:47:08.126";"3";"1";"FINISHED";"RIGHT";"success";"730";"0";"2014-09-11 13:47:06.175";"1";;;;;;;;;;;;;;;;;;;;;;;;;;;;;;;;;;;;;;;;
"vermillionaire";"1986";;"Windows 7";"Rachel's Experiment (SCIAT)";"1.0";"1";"1";"1";"1";"1";"1";"2014-09-11 13:45:03.781";"2014-09-11 14:00:16.748";"1";"1";"1";"0";"1";"15";"14";"module.GoNoGopractice.exec-1912.GoNoGo_Practice";;;;;;;;;;;;;;;;;;;;;;;;;;;;;;;;;;;;;;;;;;;;;;;;;"1950";"2014-09-11 13:47:11.369";"27";"1";"FINISHED";"RIGHT";"failure";"592";"1";"2014-09-11 13:47:09.417";"3";;;;;;;;;;;;;;;;;;;;;;;;;;;;;;;;;;;;;;;;
"vermillionaire";"1986";;"Windows 7";"Rachel's Experiment (SCIAT)";"1.0";"1";"1";"1";"1";"1";"1";"2014-09-11 13:45:03.781";"2014-09-11 14:00:16.748";"1";"1";"1";"0";"1";"16";"15";"module.training_block1.exec-3156.GoNoGo1";"1250";"2014-09-11 13:47:21.353";"NST_correctLoc";"12";"1";"FINISHED";"RIGHT";"success";"515";"0";"2014-09-11 13:47:20.102";"2";;;;;;;;;;;;;;;;;;;;;;;;;;;;;;;;;;;;;;;;;;;;;;;;;;;;;;;;;;;;;;;;;;;;;;;;;;;;;;;;;;;;;;;
"vermillionaire";"1986";;"Windows 7";"Rachel's Experiment (SCIAT)";"1.0";"1";"1";"1";"1";"1";"1";"2014-09-11 13:45:03.781";"2014-09-11 14:00:16.748";"1";"1";"1";"0";"1";"17";"16";"module.training_block1.exec-3156.GoNoGo1";"1249";"2014-09-11 13:47:23.892";"ST_correctStop";"6";"0";"FINISHED";"NONE";"success";"0";"1";"2014-09-11 13:47:22.642";"1";;;;;;;;;;;;;;;;;;;;;;;;;;;;;;;;;;;;;;;;;;;;;;;;;;;;;;;;;;;;;;;;;;;;;;;;;;;;;;;;;;;;;;;
"vermillionaire";"1986";;"Windows 7";"Rachel's Experiment (SCIAT)";"1.0";"1";"1";"1";"1";"1";"1";"2014-09-11 13:45:03.781";"2014-09-11 14:00:16.748";"1";"1";"1";"0";"1";"18";"17";"module.training_block1.exec-3156.GoNoGo1";"1249";"2014-09-11 13:47:26.421";"NST_correctLoc";"26";"1";"FINISHED";"RIGHT";"success";"486";"0";"2014-09-11 13:47:25.171";"3";;;;;;;;;;;;;;;;;;;;;;;;;;;;;;;;;;;;;;;;;;;;;;;;;;;;;;;;;;;;;;;;;;;;;;;;;;;;;;;;;;;;;;;
"vermillionaire";"1986";;"Windows 7";"Rachel's Experiment (SCIAT)";"1.0";"1";"1";"1";"1";"1";"1";"2014-09-11 13:45:03.781";"2014-09-11 14:00:16.748";"1";"1";"1";"0";"1";"19";"18";"module.training_block1.exec-3156.GoNoGo1";"1249";"2014-09-11 13:47:28.948";"ST_failedStop";"30";"0";"FINISHED";"LEFT";"failure";"456";"1";"2014-09-11 13:47:27.698";"3";;;;;;;;;;;;;;;;;;;;;;;;;;;;;;;;;;;;;;;;;;;;;;;;;;;;;;;;;;;;;;;;;;;;;;;;;;;;;;;;;;;;;;;
"vermillionaire";"1986";;"Windows 7";"Rachel's Experiment (SCIAT)";"1.0";"1";"1";"1";"1";"1";"1";"2014-09-11 13:45:03.781";"2014-09-11 14:00:16.748";"1";"1";"1";"0";"1";"20";"19";"module.training_block1.exec-3156.GoNoGo1";"1249";"2014-09-11 13:47:31.490";"NST_correctLoc";"17";"0";"FINISHED";"LEFT";"success";"666";"0";"2014-09-11 13:47:30.240";"2";;;;;;;;;;;;;;;;;;;;;;;;;;;;;;;;;;;;;;;;;;;;;;;;;;;;;;;;;;;;;;;;;;;;;;;;;;;;;;;;;;;;;;;
"vermillionaire";"1986";;"Windows 7";"Rachel's Experiment (SCIAT)";"1.0";"1";"1";"1";"1";"1";"1";"2014-09-11 13:45:03.781";"2014-09-11 14:00:16.748";"1";"1";"1";"0";"1";"21";"20";"module.training_block1.exec-3156.GoNoGo1";"1249";"2014-09-11 13:47:34.027";"NST_correctLoc";"13";"0";"FINISHED";"LEFT";"success";"592";"0";"2014-09-11 13:47:32.777";"2";;;;;;;;;;;;;;;;;;;;;;;;;;;;;;;;;;;;;;;;;;;;;;;;;;;;;;;;;;;;;;;;;;;;;;;;;;;;;;;;;;;;;;;
"vermillionaire";"1986";;"Windows 7";"Rachel's Experiment (SCIAT)";"1.0";"1";"1";"1";"1";"1";"1";"2014-09-11 13:45:03.781";"2014-09-11 14:00:16.748";"1";"1";"1";"0";"1";"22";"21";"module.training_block1.exec-3156.GoNoGo1";"1249";"2014-09-11 13:47:36.563";"ST_correctStop";"5";"0";"FINISHED";"NONE";"success";"0";"1";"2014-09-11 13:47:35.313";"1";;;;;;;;;;;;;;;;;;;;;;;;;;;;;;;;;;;;;;;;;;;;;;;;;;;;;;;;;;;;;;;;;;;;;;;;;;;;;;;;;;;;;;;
"vermillionaire";"1986";;"Windows 7";"Rachel's Experiment (SCIAT)";"1.0";"1";"1";"1";"1";"1";"1";"2014-09-11 13:45:03.781";"2014-09-11 14:00:16.748";"1";"1";"1";"0";"1";"23";"22";"module.training_block1.exec-3156.GoNoGo1";"1249";"2014-09-11 13:47:39.093";"ST_correctStop";"31";"1";"FINISHED";"NONE";"success";"0";"1";"2014-09-11 13:47:37.843";"3";;;;;;;;;;;;;;;;;;;;;;;;;;;;;;;;;;;;;;;;;;;;;;;;;;;;;;;;;;;;;;;;;;;;;;;;;;;;;;;;;;;;;;;
"vermillionaire";"1986";;"Windows 7";"Rachel's Experiment (SCIAT)";"1.0";"1";"1";"1";"1";"1";"1";"2014-09-11 13:45:03.781";"2014-09-11 14:00:16.748";"1";"1";"1";"0";"1";"24";"23";"module.training_block1.exec-3156.GoNoGo1";"1249";"2014-09-11 13:47:41.639";"NST_correctLoc";"22";"0";"FINISHED";"LEFT";"success";"405";"0";"2014-09-11 13:47:40.389";"3";;;;;;;;;;;;;;;;;;;;;;;;;;;;;;;;;;;;;;;;;;;;;;;;;;;;;;;;;;;;;;;;;;;;;;;;;;;;;;;;;;;;;;;
"vermillionaire";"1986";;"Windows 7";"Rachel's Experiment (SCIAT)";"1.0";"1";"1";"1";"1";"1";"1";"2014-09-11 13:45:03.781";"2014-09-11 14:00:16.748";"1";"1";"1";"0";"1";"25";"24";"module.training_block1.exec-3156.GoNoGo1";"1249";"2014-09-11 13:47:44.171";"NST_correctLoc";"21";"1";"FINISHED";"RIGHT";"success";"384";"0";"2014-09-11 13:47:42.921";"3";;;;;;;;;;;;;;;;;;;;;;;;;;;;;;;;;;;;;;;;;;;;;;;;;;;;;;;;;;;;;;;;;;;;;;;;;;;;;;;;;;;;;;;
"vermillionaire";"1986";;"Windows 7";"Rachel's Experiment (SCIAT)";"1.0";"1";"1";"1";"1";"1";"1";"2014-09-11 13:45:03.781";"2014-09-11 14:00:16.748";"1";"1";"1";"0";"1";"26";"25";"module.training_block1.exec-3156.GoNoGo1";"1249";"2014-09-11 13:47:46.699";"NST_correctLoc";"14";"1";"FINISHED";"RIGHT";"success";"625";"0";"2014-09-11 13:47:45.449";"2";;;;;;;;;;;;;;;;;;;;;;;;;;;;;;;;;;;;;;;;;;;;;;;;;;;;;;;;;;;;;;;;;;;;;;;;;;;;;;;;;;;;;;;
"vermillionaire";"1986";;"Windows 7";"Rachel's Experiment (SCIAT)";"1.0";"1";"1";"1";"1";"1";"1";"2014-09-11 13:45:03.781";"2014-09-11 14:00:16.748";"1";"1";"1";"0";"1";"27";"26";"module.training_block1.exec-3156.GoNoGo1";"1249";"2014-09-11 13:47:49.241";"NST_correctLoc";"32";"0";"FINISHED";"LEFT";"success";"499";"0";"2014-09-11 13:47:47.991";"3";;;;;;;;;;;;;;;;;;;;;;;;;;;;;;;;;;;;;;;;;;;;;;;;;;;;;;;;;;;;;;;;;;;;;;;;;;;;;;;;;;;;;;;
"vermillionaire";"1986";;"Windows 7";"Rachel's Experiment (SCIAT)";"1.0";"1";"1";"1";"1";"1";"1";"2014-09-11 13:45:03.781";"2014-09-11 14:00:16.748";"1";"1";"1";"0";"1";"28";"27";"module.training_block1.exec-3156.GoNoGo1";"1249";"2014-09-11 13:47:51.774";"NST_correctLoc";"10";"0";"FINISHED";"LEFT";"success";"494";"0";"2014-09-11 13:47:50.524";"2";;;;;;;;;;;;;;;;;;;;;;;;;;;;;;;;;;;;;;;;;;;;;;;;;;;;;;;;;;;;;;;;;;;;;;;;;;;;;;;;;;;;;;;
"vermillionaire";"1986";;"Windows 7";"Rachel's Experiment (SCIAT)";"1.0";"1";"1";"1";"1";"1";"1";"2014-09-11 13:45:03.781";"2014-09-11 14:00:16.748";"1";"1";"1";"0";"1";"29";"28";"module.training_block1.exec-3156.GoNoGo1";"1249";"2014-09-11 13:47:54.307";"ST_correctStop";"3";"1";"FINISHED";"NONE";"success";"0";"1";"2014-09-11 13:47:53.057";"1";;;;;;;;;;;;;;;;;;;;;;;;;;;;;;;;;;;;;;;;;;;;;;;;;;;;;;;;;;;;;;;;;;;;;;;;;;;;;;;;;;;;;;;
"vermillionaire";"1986";;"Windows 7";"Rachel's Experiment (SCIAT)";"1.0";"1";"1";"1";"1";"1";"1";"2014-09-11 13:45:03.781";"2014-09-11 14:00:16.748";"1";"1";"1";"0";"1";"30";"29";"module.training_block1.exec-3156.GoNoGo1";"1249";"2014-09-11 13:47:56.842";"ST_correctStop";"7";"0";"FINISHED";"NONE";"success";"0";"1";"2014-09-11 13:47:55.592";"1";;;;;;;;;;;;;;;;;;;;;;;;;;;;;;;;;;;;;;;;;;;;;;;;;;;;;;;;;;;;;;;;;;;;;;;;;;;;;;;;;;;;;;;
"vermillionaire";"1986";;"Windows 7";"Rachel's Experiment (SCIAT)";"1.0";"1";"1";"1";"1";"1";"1";"2014-09-11 13:45:03.781";"2014-09-11 14:00:16.748";"1";"1";"1";"0";"1";"31";"30";"module.training_block1.exec-3156.GoNoGo1";"1249";"2014-09-11 13:47:59.376";"ST_correctStop";"2";"0";"FINISHED";"NONE";"success";"0";"1";"2014-09-11 13:47:58.126";"1";;;;;;;;;;;;;;;;;;;;;;;;;;;;;;;;;;;;;;;;;;;;;;;;;;;;;;;;;;;;;;;;;;;;;;;;;;;;;;;;;;;;;;;
"vermillionaire";"1986";;"Windows 7";"Rachel's Experiment (SCIAT)";"1.0";"1";"1";"1";"1";"1";"1";"2014-09-11 13:45:03.781";"2014-09-11 14:00:16.748";"1";"1";"1";"0";"1";"32";"31";"module.training_block1.exec-3156.GoNoGo1";"1249";"2014-09-11 13:48:01.912";"NST_correctLoc";"19";"0";"FINISHED";"LEFT";"success";"532";"0";"2014-09-11 13:48:00.662";"3";;;;;;;;;;;;;;;;;;;;;;;;;;;;;;;;;;;;;;;;;;;;;;;;;;;;;;;;;;;;;;;;;;;;;;;;;;;;;;;;;;;;;;;
"vermillionaire";"1986";;"Windows 7";"Rachel's Experiment (SCIAT)";"1.0";"1";"1";"1";"1";"1";"1";"2014-09-11 13:45:03.781";"2014-09-11 14:00:16.748";"1";"1";"1";"0";"1";"33";"32";"module.training_block1.exec-3156.GoNoGo1";"1249";"2014-09-11 13:48:04.451";"ST_failedStop";"29";"0";"FINISHED";"LEFT";"failure";"617";"1";"2014-09-11 13:48:03.201";"3";;;;;;;;;;;;;;;;;;;;;;;;;;;;;;;;;;;;;;;;;;;;;;;;;;;;;;;;;;;;;;;;;;;;;;;;;;;;;;;;;;;;;;;
"vermillionaire";"1986";;"Windows 7";"Rachel's Experiment (SCIAT)";"1.0";"1";"1";"1";"1";"1";"1";"2014-09-11 13:45:03.781";"2014-09-11 14:00:16.748";"1";"1";"1";"0";"1";"34";"33";"module.training_block1.exec-3156.GoNoGo1";"1250";"2014-09-11 13:48:06.984";"ST_correctStop";"1";"1";"FINISHED";"NONE";"success";"0";"1";"2014-09-11 13:48:05.733";"1";;;;;;;;;;;;;;;;;;;;;;;;;;;;;;;;;;;;;;;;;;;;;;;;;;;;;;;;;;;;;;;;;;;;;;;;;;;;;;;;;;;;;;;
"vermillionaire";"1986";;"Windows 7";"Rachel's Experiment (SCIAT)";"1.0";"1";"1";"1";"1";"1";"1";"2014-09-11 13:45:03.781";"2014-09-11 14:00:16.748";"1";"1";"1";"0";"1";"35";"34";"module.training_block1.exec-3156.GoNoGo1";"1249";"2014-09-11 13:48:09.523";"ST_correctStop";"33";"0";"FINISHED";"NONE";"success";"0";"1";"2014-09-11 13:48:08.273";"3";;;;;;;;;;;;;;;;;;;;;;;;;;;;;;;;;;;;;;;;;;;;;;;;;;;;;;;;;;;;;;;;;;;;;;;;;;;;;;;;;;;;;;;
"vermillionaire";"1986";;"Windows 7";"Rachel's Experiment (SCIAT)";"1.0";"1";"1";"1";"1";"1";"1";"2014-09-11 13:45:03.781";"2014-09-11 14:00:16.748";"1";"1";"1";"0";"1";"36";"35";"module.training_block1.exec-3156.GoNoGo1";"1249";"2014-09-11 13:48:12.054";"ST_correctStop";"8";"1";"FINISHED";"NONE";"success";"0";"1";"2014-09-11 13:48:10.804";"1";;;;;;;;;;;;;;;;;;;;;;;;;;;;;;;;;;;;;;;;;;;;;;;;;;;;;;;;;;;;;;;;;;;;;;;;;;;;;;;;;;;;;;;
"vermillionaire";"1986";;"Windows 7";"Rachel's Experiment (SCIAT)";"1.0";"1";"1";"1";"1";"1";"1";"2014-09-11 13:45:03.781";"2014-09-11 14:00:16.748";"1";"1";"1";"0";"1";"37";"36";"module.training_block1.exec-3156.GoNoGo1";"1249";"2014-09-11 13:48:14.592";"NST_correctLoc";"9";"0";"FINISHED";"LEFT";"success";"476";"0";"2014-09-11 13:48:13.342";"2";;;;;;;;;;;;;;;;;;;;;;;;;;;;;;;;;;;;;;;;;;;;;;;;;;;;;;;;;;;;;;;;;;;;;;;;;;;;;;;;;;;;;;;
"vermillionaire";"1986";;"Windows 7";"Rachel's Experiment (SCIAT)";"1.0";"1";"1";"1";"1";"1";"1";"2014-09-11 13:45:03.781";"2014-09-11 14:00:16.748";"1";"1";"1";"0";"1";"38";"37";"module.training_block1.exec-3156.GoNoGo1";"1249";"2014-09-11 13:48:17.124";"ST_correctStop";"20";"1";"FINISHED";"NONE";"success";"0";"1";"2014-09-11 13:48:15.874";"3";;;;;;;;;;;;;;;;;;;;;;;;;;;;;;;;;;;;;;;;;;;;;;;;;;;;;;;;;;;;;;;;;;;;;;;;;;;;;;;;;;;;;;;
"vermillionaire";"1986";;"Windows 7";"Rachel's Experiment (SCIAT)";"1.0";"1";"1";"1";"1";"1";"1";"2014-09-11 13:45:03.781";"2014-09-11 14:00:16.748";"1";"1";"1";"0";"1";"39";"38";"module.training_block1.exec-3156.GoNoGo1";"1250";"2014-09-11 13:48:19.801";"NST_correctLoc";"11";"1";"FINISHED";"RIGHT";"success";"659";"0";"2014-09-11 13:48:18.551";"2";;;;;;;;;;;;;;;;;;;;;;;;;;;;;;;;;;;;;;;;;;;;;;;;;;;;;;;;;;;;;;;;;;;;;;;;;;;;;;;;;;;;;;;
"vermillionaire";"1986";;"Windows 7";"Rachel's Experiment (SCIAT)";"1.0";"1";"1";"1";"1";"1";"1";"2014-09-11 13:45:03.781";"2014-09-11 14:00:16.748";"1";"1";"1";"0";"1";"40";"39";"module.training_block1.exec-3156.GoNoGo1";"1249";"2014-09-11 13:48:22.338";"ST_correctStop";"27";"1";"FINISHED";"NONE";"success";"0";"1";"2014-09-11 13:48:21.088";"3";;;;;;;;;;;;;;;;;;;;;;;;;;;;;;;;;;;;;;;;;;;;;;;;;;;;;;;;;;;;;;;;;;;;;;;;;;;;;;;;;;;;;;;
"vermillionaire";"1986";;"Windows 7";"Rachel's Experiment (SCIAT)";"1.0";"1";"1";"1";"1";"1";"1";"2014-09-11 13:45:03.781";"2014-09-11 14:00:16.748";"1";"1";"1";"0";"1";"41";"40";"module.training_block1.exec-3156.GoNoGo1";"1249";"2014-09-11 13:48:24.876";"ST_correctStop";"28";"1";"FINISHED";"NONE";"success";"0";"1";"2014-09-11 13:48:23.626";"3";;;;;;;;;;;;;;;;;;;;;;;;;;;;;;;;;;;;;;;;;;;;;;;;;;;;;;;;;;;;;;;;;;;;;;;;;;;;;;;;;;;;;;;
"vermillionaire";"1986";;"Windows 7";"Rachel's Experiment (SCIAT)";"1.0";"1";"1";"1";"1";"1";"1";"2014-09-11 13:45:03.781";"2014-09-11 14:00:16.748";"1";"1";"1";"0";"1";"42";"41";"module.training_block1.exec-3156.GoNoGo1";"1250";"2014-09-11 13:48:27.413";"ST_correctStop";"34";"0";"FINISHED";"NONE";"success";"0";"1";"2014-09-11 13:48:26.163";"3";;;;;;;;;;;;;;;;;;;;;;;;;;;;;;;;;;;;;;;;;;;;;;;;;;;;;;;;;;;;;;;;;;;;;;;;;;;;;;;;;;;;;;;
"vermillionaire";"1986";;"Windows 7";"Rachel's Experiment (SCIAT)";"1.0";"1";"1";"1";"1";"1";"1";"2014-09-11 13:45:03.781";"2014-09-11 14:00:16.748";"1";"1";"1";"0";"1";"43";"42";"module.training_block1.exec-3156.GoNoGo1";"1249";"2014-09-11 13:48:29.950";"NST_correctLoc";"23";"0";"FINISHED";"LEFT";"success";"510";"0";"2014-09-11 13:48:28.700";"3";;;;;;;;;;;;;;;;;;;;;;;;;;;;;;;;;;;;;;;;;;;;;;;;;;;;;;;;;;;;;;;;;;;;;;;;;;;;;;;;;;;;;;;
"vermillionaire";"1986";;"Windows 7";"Rachel's Experiment (SCIAT)";"1.0";"1";"1";"1";"1";"1";"1";"2014-09-11 13:45:03.781";"2014-09-11 14:00:16.748";"1";"1";"1";"0";"1";"44";"43";"module.training_block1.exec-3156.GoNoGo1";"1250";"2014-09-11 13:48:32.483";"ST_correctStop";"0";"1";"FINISHED";"NONE";"success";"0";"1";"2014-09-11 13:48:31.232";"1";;;;;;;;;;;;;;;;;;;;;;;;;;;;;;;;;;;;;;;;;;;;;;;;;;;;;;;;;;;;;;;;;;;;;;;;;;;;;;;;;;;;;;;
"vermillionaire";"1986";;"Windows 7";"Rachel's Experiment (SCIAT)";"1.0";"1";"1";"1";"1";"1";"1";"2014-09-11 13:45:03.781";"2014-09-11 14:00:16.748";"1";"1";"1";"0";"1";"45";"44";"module.training_block1.exec-3156.GoNoGo1";"1249";"2014-09-11 13:48:35.015";"NST_correctLoc";"35";"0";"FINISHED";"LEFT";"success";"436";"0";"2014-09-11 13:48:33.765";"3";;;;;;;;;;;;;;;;;;;;;;;;;;;;;;;;;;;;;;;;;;;;;;;;;;;;;;;;;;;;;;;;;;;;;;;;;;;;;;;;;;;;;;;
"vermillionaire";"1986";;"Windows 7";"Rachel's Experiment (SCIAT)";"1.0";"1";"1";"1";"1";"1";"1";"2014-09-11 13:45:03.781";"2014-09-11 14:00:16.748";"1";"1";"1";"0";"1";"46";"45";"module.training_block1.exec-3156.GoNoGo1";"1249";"2014-09-11 13:48:37.543";"NST_correctLoc";"18";"1";"FINISHED";"RIGHT";"success";"661";"0";"2014-09-11 13:48:36.293";"3";;;;;;;;;;;;;;;;;;;;;;;;;;;;;;;;;;;;;;;;;;;;;;;;;;;;;;;;;;;;;;;;;;;;;;;;;;;;;;;;;;;;;;;
"vermillionaire";"1986";;"Windows 7";"Rachel's Experiment (SCIAT)";"1.0";"1";"1";"1";"1";"1";"1";"2014-09-11 13:45:03.781";"2014-09-11 14:00:16.748";"1";"1";"1";"0";"1";"47";"46";"module.training_block1.exec-3156.GoNoGo1";"1249";"2014-09-11 13:48:40.073";"NST_correctLoc";"24";"1";"FINISHED";"RIGHT";"success";"547";"0";"2014-09-11 13:48:38.823";"3";;;;;;;;;;;;;;;;;;;;;;;;;;;;;;;;;;;;;;;;;;;;;;;;;;;;;;;;;;;;;;;;;;;;;;;;;;;;;;;;;;;;;;;
"vermillionaire";"1986";;"Windows 7";"Rachel's Experiment (SCIAT)";"1.0";"1";"1";"1";"1";"1";"1";"2014-09-11 13:45:03.781";"2014-09-11 14:00:16.748";"1";"1";"1";"0";"1";"48";"47";"module.training_block1.exec-3156.GoNoGo1";"1249";"2014-09-11 13:48:42.594";"ST_correctStop";"25";"1";"FINISHED";"NONE";"success";"0";"1";"2014-09-11 13:48:41.344";"3";;;;;;;;;;;;;;;;;;;;;;;;;;;;;;;;;;;;;;;;;;;;;;;;;;;;;;;;;;;;;;;;;;;;;;;;;;;;;;;;;;;;;;;
"vermillionaire";"1986";;"Windows 7";"Rachel's Experiment (SCIAT)";"1.0";"1";"1";"1";"1";"1";"1";"2014-09-11 13:45:03.781";"2014-09-11 14:00:16.748";"1";"1";"1";"0";"1";"49";"48";"module.training_block1.exec-3156.GoNoGo1";"1249";"2014-09-11 13:48:45.131";"NST_correctLoc";"15";"0";"FINISHED";"LEFT";"success";"769";"0";"2014-09-11 13:48:43.881";"2";;;;;;;;;;;;;;;;;;;;;;;;;;;;;;;;;;;;;;;;;;;;;;;;;;;;;;;;;;;;;;;;;;;;;;;;;;;;;;;;;;;;;;;
"vermillionaire";"1986";;"Windows 7";"Rachel's Experiment (SCIAT)";"1.0";"1";"1";"1";"1";"1";"1";"2014-09-11 13:45:03.781";"2014-09-11 14:00:16.748";"1";"1";"1";"0";"1";"50";"49";"module.training_block1.exec-3156.GoNoGo1";"1249";"2014-09-11 13:48:47.663";"NST_correctLoc";"16";"1";"FINISHED";"RIGHT";"success";"701";"0";"2014-09-11 13:48:46.413";"2";;;;;;;;;;;;;;;;;;;;;;;;;;;;;;;;;;;;;;;;;;;;;;;;;;;;;;;;;;;;;;;;;;;;;;;;;;;;;;;;;;;;;;;
"vermillionaire";"1986";;"Windows 7";"Rachel's Experiment (SCIAT)";"1.0";"1";"1";"1";"1";"1";"1";"2014-09-11 13:45:03.781";"2014-09-11 14:00:16.748";"1";"1";"1";"0";"1";"51";"50";"module.training_block1.exec-3156.GoNoGo1";"1249";"2014-09-11 13:48:50.200";"ST_correctStop";"4";"1";"FINISHED";"NONE";"success";"0";"1";"2014-09-11 13:48:48.950";"1";;;;;;;;;;;;;;;;;;;;;;;;;;;;;;;;;;;;;;;;;;;;;;;;;;;;;;;;;;;;;;;;;;;;;;;;;;;;;;;;;;;;;;;
"vermillionaire";"1986";;"Windows 7";"Rachel's Experiment (SCIAT)";"1.0";"1";"1";"1";"1";"1";"1";"2014-09-11 13:45:03.781";"2014-09-11 14:00:16.748";"1";"1";"1";"0";"1";"52";"51";"module.training_block2.exec-4614.GoNoGo2";;;;;;;;;;;;;"1249";"2014-09-11 13:49:01.748";"NST_correctLoc";"19";"0";"FINISHED";"LEFT";"success";"552";"0";"2014-09-11 13:49:00.498";"3";;;;;;;;;;;;;;;;;;;;;;;;;;;;;;;;;;;;;;;;;;;;;;;;;;;;;;;;;;;;;;;;;;;;;;;;;;;
"vermillionaire";"1986";;"Windows 7";"Rachel's Experiment (SCIAT)";"1.0";"1";"1";"1";"1";"1";"1";"2014-09-11 13:45:03.781";"2014-09-11 14:00:16.748";"1";"1";"1";"0";"1";"53";"52";"module.training_block2.exec-4614.GoNoGo2";;;;;;;;;;;;;"1250";"2014-09-11 13:49:04.289";"ST_correctStop";"21";"0";"FINISHED";"NONE";"success";"0";"1";"2014-09-11 13:49:03.039";"3";;;;;;;;;;;;;;;;;;;;;;;;;;;;;;;;;;;;;;;;;;;;;;;;;;;;;;;;;;;;;;;;;;;;;;;;;;;
"vermillionaire";"1986";;"Windows 7";"Rachel's Experiment (SCIAT)";"1.0";"1";"1";"1";"1";"1";"1";"2014-09-11 13:45:03.781";"2014-09-11 14:00:16.748";"1";"1";"1";"0";"1";"54";"53";"module.training_block2.exec-4614.GoNoGo2";;;;;;;;;;;;;"1249";"2014-09-11 13:49:06.824";"NST_correctLoc";"29";"0";"FINISHED";"LEFT";"success";"693";"0";"2014-09-11 13:49:05.574";"3";;;;;;;;;;;;;;;;;;;;;;;;;;;;;;;;;;;;;;;;;;;;;;;;;;;;;;;;;;;;;;;;;;;;;;;;;;;
"vermillionaire";"1986";;"Windows 7";"Rachel's Experiment (SCIAT)";"1.0";"1";"1";"1";"1";"1";"1";"2014-09-11 13:45:03.781";"2014-09-11 14:00:16.748";"1";"1";"1";"0";"1";"55";"54";"module.training_block2.exec-4614.GoNoGo2";;;;;;;;;;;;;"1250";"2014-09-11 13:49:09.353";"NST_correctLoc";"32";"0";"FINISHED";"LEFT";"success";"644";"0";"2014-09-11 13:49:08.103";"3";;;;;;;;;;;;;;;;;;;;;;;;;;;;;;;;;;;;;;;;;;;;;;;;;;;;;;;;;;;;;;;;;;;;;;;;;;;
"vermillionaire";"1986";;"Windows 7";"Rachel's Experiment (SCIAT)";"1.0";"1";"1";"1";"1";"1";"1";"2014-09-11 13:45:03.781";"2014-09-11 14:00:16.748";"1";"1";"1";"0";"1";"56";"55";"module.training_block2.exec-4614.GoNoGo2";;;;;;;;;;;;;"1249";"2014-09-11 13:49:11.888";"ST_correctStop";"8";"0";"FINISHED";"NONE";"success";"0";"1";"2014-09-11 13:49:10.638";"1";;;;;;;;;;;;;;;;;;;;;;;;;;;;;;;;;;;;;;;;;;;;;;;;;;;;;;;;;;;;;;;;;;;;;;;;;;;
"vermillionaire";"1986";;"Windows 7";"Rachel's Experiment (SCIAT)";"1.0";"1";"1";"1";"1";"1";"1";"2014-09-11 13:45:03.781";"2014-09-11 14:00:16.748";"1";"1";"1";"0";"1";"57";"56";"module.training_block2.exec-4614.GoNoGo2";;;;;;;;;;;;;"1249";"2014-09-11 13:49:14.418";"ST_correctStop";"3";"1";"FINISHED";"NONE";"success";"0";"1";"2014-09-11 13:49:13.168";"1";;;;;;;;;;;;;;;;;;;;;;;;;;;;;;;;;;;;;;;;;;;;;;;;;;;;;;;;;;;;;;;;;;;;;;;;;;;
"vermillionaire";"1986";;"Windows 7";"Rachel's Experiment (SCIAT)";"1.0";"1";"1";"1";"1";"1";"1";"2014-09-11 13:45:03.781";"2014-09-11 14:00:16.748";"1";"1";"1";"0";"1";"58";"57";"module.training_block2.exec-4614.GoNoGo2";;;;;;;;;;;;;"1249";"2014-09-11 13:49:16.954";"NST_correctLoc";"30";"1";"FINISHED";"RIGHT";"success";"547";"0";"2014-09-11 13:49:15.704";"3";;;;;;;;;;;;;;;;;;;;;;;;;;;;;;;;;;;;;;;;;;;;;;;;;;;;;;;;;;;;;;;;;;;;;;;;;;;
"vermillionaire";"1986";;"Windows 7";"Rachel's Experiment (SCIAT)";"1.0";"1";"1";"1";"1";"1";"1";"2014-09-11 13:45:03.781";"2014-09-11 14:00:16.748";"1";"1";"1";"0";"1";"59";"58";"module.training_block2.exec-4614.GoNoGo2";;;;;;;;;;;;;"1249";"2014-09-11 13:49:19.480";"NST_correctLoc";"34";"1";"FINISHED";"RIGHT";"success";"917";"0";"2014-09-11 13:49:18.230";"3";;;;;;;;;;;;;;;;;;;;;;;;;;;;;;;;;;;;;;;;;;;;;;;;;;;;;;;;;;;;;;;;;;;;;;;;;;;
"vermillionaire";"1986";;"Windows 7";"Rachel's Experiment (SCIAT)";"1.0";"1";"1";"1";"1";"1";"1";"2014-09-11 13:45:03.781";"2014-09-11 14:00:16.748";"1";"1";"1";"0";"1";"60";"59";"module.training_block2.exec-4614.GoNoGo2";;;;;;;;;;;;;"1249";"2014-09-11 13:49:22.010";"ST_correctStop";"7";"1";"FINISHED";"NONE";"success";"0";"1";"2014-09-11 13:49:20.760";"1";;;;;;;;;;;;;;;;;;;;;;;;;;;;;;;;;;;;;;;;;;;;;;;;;;;;;;;;;;;;;;;;;;;;;;;;;;;
"vermillionaire";"1986";;"Windows 7";"Rachel's Experiment (SCIAT)";"1.0";"1";"1";"1";"1";"1";"1";"2014-09-11 13:45:03.781";"2014-09-11 14:00:16.748";"1";"1";"1";"0";"1";"61";"60";"module.training_block2.exec-4614.GoNoGo2";;;;;;;;;;;;;"1250";"2014-09-11 13:49:24.545";"NST_correctLoc";"13";"1";"FINISHED";"RIGHT";"success";"540";"0";"2014-09-11 13:49:23.294";"2";;;;;;;;;;;;;;;;;;;;;;;;;;;;;;;;;;;;;;;;;;;;;;;;;;;;;;;;;;;;;;;;;;;;;;;;;;;
"vermillionaire";"1986";;"Windows 7";"Rachel's Experiment (SCIAT)";"1.0";"1";"1";"1";"1";"1";"1";"2014-09-11 13:45:03.781";"2014-09-11 14:00:16.748";"1";"1";"1";"0";"1";"62";"61";"module.training_block2.exec-4614.GoNoGo2";;;;;;;;;;;;;"1249";"2014-09-11 13:49:27.078";"NST_correctLoc";"10";"1";"FINISHED";"RIGHT";"success";"423";"0";"2014-09-11 13:49:25.828";"2";;;;;;;;;;;;;;;;;;;;;;;;;;;;;;;;;;;;;;;;;;;;;;;;;;;;;;;;;;;;;;;;;;;;;;;;;;;
"vermillionaire";"1986";;"Windows 7";"Rachel's Experiment (SCIAT)";"1.0";"1";"1";"1";"1";"1";"1";"2014-09-11 13:45:03.781";"2014-09-11 14:00:16.748";"1";"1";"1";"0";"1";"63";"62";"module.training_block2.exec-4614.GoNoGo2";;;;;;;;;;;;;"1249";"2014-09-11 13:49:29.598";"ST_correctStop";"23";"0";"FINISHED";"NONE";"success";"0";"1";"2014-09-11 13:49:28.348";"3";;;;;;;;;;;;;;;;;;;;;;;;;;;;;;;;;;;;;;;;;;;;;;;;;;;;;;;;;;;;;;;;;;;;;;;;;;;
"vermillionaire";"1986";;"Windows 7";"Rachel's Experiment (SCIAT)";"1.0";"1";"1";"1";"1";"1";"1";"2014-09-11 13:45:03.781";"2014-09-11 14:00:16.748";"1";"1";"1";"0";"1";"64";"63";"module.training_block2.exec-4614.GoNoGo2";;;;;;;;;;;;;"1249";"2014-09-11 13:49:32.119";"NST_correctLoc";"11";"1";"FINISHED";"RIGHT";"success";"502";"0";"2014-09-11 13:49:30.869";"2";;;;;;;;;;;;;;;;;;;;;;;;;;;;;;;;;;;;;;;;;;;;;;;;;;;;;;;;;;;;;;;;;;;;;;;;;;;
"vermillionaire";"1986";;"Windows 7";"Rachel's Experiment (SCIAT)";"1.0";"1";"1";"1";"1";"1";"1";"2014-09-11 13:45:03.781";"2014-09-11 14:00:16.748";"1";"1";"1";"0";"1";"65";"64";"module.training_block2.exec-4614.GoNoGo2";;;;;;;;;;;;;"1249";"2014-09-11 13:49:34.646";"NST_correctLoc";"15";"0";"FINISHED";"LEFT";"success";"567";"0";"2014-09-11 13:49:33.396";"2";;;;;;;;;;;;;;;;;;;;;;;;;;;;;;;;;;;;;;;;;;;;;;;;;;;;;;;;;;;;;;;;;;;;;;;;;;;
"vermillionaire";"1986";;"Windows 7";"Rachel's Experiment (SCIAT)";"1.0";"1";"1";"1";"1";"1";"1";"2014-09-11 13:45:03.781";"2014-09-11 14:00:16.748";"1";"1";"1";"0";"1";"66";"65";"module.training_block2.exec-4614.GoNoGo2";;;;;;;;;;;;;"1249";"2014-09-11 13:49:37.173";"NST_correctLoc";"24";"0";"FINISHED";"LEFT";"success";"439";"0";"2014-09-11 13:49:35.923";"3";;;;;;;;;;;;;;;;;;;;;;;;;;;;;;;;;;;;;;;;;;;;;;;;;;;;;;;;;;;;;;;;;;;;;;;;;;;
"vermillionaire";"1986";;"Windows 7";"Rachel's Experiment (SCIAT)";"1.0";"1";"1";"1";"1";"1";"1";"2014-09-11 13:45:03.781";"2014-09-11 14:00:16.748";"1";"1";"1";"0";"1";"67";"66";"module.training_block2.exec-4614.GoNoGo2";;;;;;;;;;;;;"1249";"2014-09-11 13:49:39.699";"ST_correctStop";"27";"1";"FINISHED";"NONE";"success";"0";"1";"2014-09-11 13:49:38.449";"3";;;;;;;;;;;;;;;;;;;;;;;;;;;;;;;;;;;;;;;;;;;;;;;;;;;;;;;;;;;;;;;;;;;;;;;;;;;
"vermillionaire";"1986";;"Windows 7";"Rachel's Experiment (SCIAT)";"1.0";"1";"1";"1";"1";"1";"1";"2014-09-11 13:45:03.781";"2014-09-11 14:00:16.748";"1";"1";"1";"0";"1";"68";"67";"module.training_block2.exec-4614.GoNoGo2";;;;;;;;;;;;;"1249";"2014-09-11 13:49:42.223";"ST_correctStop";"35";"0";"FINISHED";"NONE";"success";"0";"1";"2014-09-11 13:49:40.973";"3";;;;;;;;;;;;;;;;;;;;;;;;;;;;;;;;;;;;;;;;;;;;;;;;;;;;;;;;;;;;;;;;;;;;;;;;;;;
"vermillionaire";"1986";;"Windows 7";"Rachel's Experiment (SCIAT)";"1.0";"1";"1";"1";"1";"1";"1";"2014-09-11 13:45:03.781";"2014-09-11 14:00:16.748";"1";"1";"1";"0";"1";"69";"68";"module.training_block2.exec-4614.GoNoGo2";;;;;;;;;;;;;"1249";"2014-09-11 13:49:44.745";"ST_correctStop";"25";"0";"FINISHED";"NONE";"success";"0";"1";"2014-09-11 13:49:43.495";"3";;;;;;;;;;;;;;;;;;;;;;;;;;;;;;;;;;;;;;;;;;;;;;;;;;;;;;;;;;;;;;;;;;;;;;;;;;;
"vermillionaire";"1986";;"Windows 7";"Rachel's Experiment (SCIAT)";"1.0";"1";"1";"1";"1";"1";"1";"2014-09-11 13:45:03.781";"2014-09-11 14:00:16.748";"1";"1";"1";"0";"1";"70";"69";"module.training_block2.exec-4614.GoNoGo2";;;;;;;;;;;;;"1249";"2014-09-11 13:49:47.265";"NST_correctLoc";"28";"0";"FINISHED";"LEFT";"success";"540";"0";"2014-09-11 13:49:46.015";"3";;;;;;;;;;;;;;;;;;;;;;;;;;;;;;;;;;;;;;;;;;;;;;;;;;;;;;;;;;;;;;;;;;;;;;;;;;;
"vermillionaire";"1986";;"Windows 7";"Rachel's Experiment (SCIAT)";"1.0";"1";"1";"1";"1";"1";"1";"2014-09-11 13:45:03.781";"2014-09-11 14:00:16.748";"1";"1";"1";"0";"1";"71";"70";"module.training_block2.exec-4614.GoNoGo2";;;;;;;;;;;;;"1249";"2014-09-11 13:49:49.792";"NST_correctLoc";"9";"0";"FINISHED";"LEFT";"success";"685";"0";"2014-09-11 13:49:48.542";"2";;;;;;;;;;;;;;;;;;;;;;;;;;;;;;;;;;;;;;;;;;;;;;;;;;;;;;;;;;;;;;;;;;;;;;;;;;;
"vermillionaire";"1986";;"Windows 7";"Rachel's Experiment (SCIAT)";"1.0";"1";"1";"1";"1";"1";"1";"2014-09-11 13:45:03.781";"2014-09-11 14:00:16.748";"1";"1";"1";"0";"1";"72";"71";"module.training_block2.exec-4614.GoNoGo2";;;;;;;;;;;;;"1249";"2014-09-11 13:49:52.319";"NST_correctLoc";"16";"0";"FINISHED";"LEFT";"success";"590";"0";"2014-09-11 13:49:51.069";"2";;;;;;;;;;;;;;;;;;;;;;;;;;;;;;;;;;;;;;;;;;;;;;;;;;;;;;;;;;;;;;;;;;;;;;;;;;;
"vermillionaire";"1986";;"Windows 7";"Rachel's Experiment (SCIAT)";"1.0";"1";"1";"1";"1";"1";"1";"2014-09-11 13:45:03.781";"2014-09-11 14:00:16.748";"1";"1";"1";"0";"1";"73";"72";"module.training_block2.exec-4614.GoNoGo2";;;;;;;;;;;;;"1249";"2014-09-11 13:49:54.852";"ST_correctStop";"18";"0";"FINISHED";"NONE";"success";"0";"1";"2014-09-11 13:49:53.602";"3";;;;;;;;;;;;;;;;;;;;;;;;;;;;;;;;;;;;;;;;;;;;;;;;;;;;;;;;;;;;;;;;;;;;;;;;;;;
"vermillionaire";"1986";;"Windows 7";"Rachel's Experiment (SCIAT)";"1.0";"1";"1";"1";"1";"1";"1";"2014-09-11 13:45:03.781";"2014-09-11 14:00:16.748";"1";"1";"1";"0";"1";"74";"73";"module.training_block2.exec-4614.GoNoGo2";;;;;;;;;;;;;"1249";"2014-09-11 13:49:57.378";"ST_correctStop";"2";"0";"FINISHED";"NONE";"success";"0";"1";"2014-09-11 13:49:56.128";"1";;;;;;;;;;;;;;;;;;;;;;;;;;;;;;;;;;;;;;;;;;;;;;;;;;;;;;;;;;;;;;;;;;;;;;;;;;;
"vermillionaire";"1986";;"Windows 7";"Rachel's Experiment (SCIAT)";"1.0";"1";"1";"1";"1";"1";"1";"2014-09-11 13:45:03.781";"2014-09-11 14:00:16.748";"1";"1";"1";"0";"1";"75";"74";"module.training_block2.exec-4614.GoNoGo2";;;;;;;;;;;;;"1249";"2014-09-11 13:49:59.911";"ST_failedStop";"22";"0";"FINISHED";"LEFT";"failure";"502";"1";"2014-09-11 13:49:58.661";"3";;;;;;;;;;;;;;;;;;;;;;;;;;;;;;;;;;;;;;;;;;;;;;;;;;;;;;;;;;;;;;;;;;;;;;;;;;;
"vermillionaire";"1986";;"Windows 7";"Rachel's Experiment (SCIAT)";"1.0";"1";"1";"1";"1";"1";"1";"2014-09-11 13:45:03.781";"2014-09-11 14:00:16.748";"1";"1";"1";"0";"1";"76";"75";"module.training_block2.exec-4614.GoNoGo2";;;;;;;;;;;;;"1249";"2014-09-11 13:50:02.437";"ST_correctStop";"0";"1";"FINISHED";"NONE";"success";"0";"1";"2014-09-11 13:50:01.187";"1";;;;;;;;;;;;;;;;;;;;;;;;;;;;;;;;;;;;;;;;;;;;;;;;;;;;;;;;;;;;;;;;;;;;;;;;;;;
"vermillionaire";"1986";;"Windows 7";"Rachel's Experiment (SCIAT)";"1.0";"1";"1";"1";"1";"1";"1";"2014-09-11 13:45:03.781";"2014-09-11 14:00:16.748";"1";"1";"1";"0";"1";"77";"76";"module.training_block2.exec-4614.GoNoGo2";;;;;;;;;;;;;"1250";"2014-09-11 13:50:04.967";"ST_correctStop";"1";"1";"FINISHED";"NONE";"success";"0";"1";"2014-09-11 13:50:03.717";"1";;;;;;;;;;;;;;;;;;;;;;;;;;;;;;;;;;;;;;;;;;;;;;;;;;;;;;;;;;;;;;;;;;;;;;;;;;;
"vermillionaire";"1986";;"Windows 7";"Rachel's Experiment (SCIAT)";"1.0";"1";"1";"1";"1";"1";"1";"2014-09-11 13:45:03.781";"2014-09-11 14:00:16.748";"1";"1";"1";"0";"1";"78";"77";"module.training_block2.exec-4614.GoNoGo2";;;;;;;;;;;;;"1250";"2014-09-11 13:50:07.494";"ST_correctStop";"33";"0";"FINISHED";"NONE";"success";"0";"1";"2014-09-11 13:50:06.244";"3";;;;;;;;;;;;;;;;;;;;;;;;;;;;;;;;;;;;;;;;;;;;;;;;;;;;;;;;;;;;;;;;;;;;;;;;;;;
"vermillionaire";"1986";;"Windows 7";"Rachel's Experiment (SCIAT)";"1.0";"1";"1";"1";"1";"1";"1";"2014-09-11 13:45:03.781";"2014-09-11 14:00:16.748";"1";"1";"1";"0";"1";"79";"78";"module.training_block2.exec-4614.GoNoGo2";;;;;;;;;;;;;"1249";"2014-09-11 13:50:10.025";"ST_correctStop";"5";"0";"FINISHED";"NONE";"success";"0";"1";"2014-09-11 13:50:08.775";"1";;;;;;;;;;;;;;;;;;;;;;;;;;;;;;;;;;;;;;;;;;;;;;;;;;;;;;;;;;;;;;;;;;;;;;;;;;;
"vermillionaire";"1986";;"Windows 7";"Rachel's Experiment (SCIAT)";"1.0";"1";"1";"1";"1";"1";"1";"2014-09-11 13:45:03.781";"2014-09-11 14:00:16.748";"1";"1";"1";"0";"1";"80";"79";"module.training_block2.exec-4614.GoNoGo2";;;;;;;;;;;;;"1250";"2014-09-11 13:50:12.556";"NST_correctLoc";"26";"1";"FINISHED";"RIGHT";"success";"913";"0";"2014-09-11 13:50:11.306";"3";;;;;;;;;;;;;;;;;;;;;;;;;;;;;;;;;;;;;;;;;;;;;;;;;;;;;;;;;;;;;;;;;;;;;;;;;;;
"vermillionaire";"1986";;"Windows 7";"Rachel's Experiment (SCIAT)";"1.0";"1";"1";"1";"1";"1";"1";"2014-09-11 13:45:03.781";"2014-09-11 14:00:16.748";"1";"1";"1";"0";"1";"81";"80";"module.training_block2.exec-4614.GoNoGo2";;;;;;;;;;;;;"1249";"2014-09-11 13:50:15.082";"NST_correctLoc";"12";"0";"FINISHED";"LEFT";"success";"660";"0";"2014-09-11 13:50:13.832";"2";;;;;;;;;;;;;;;;;;;;;;;;;;;;;;;;;;;;;;;;;;;;;;;;;;;;;;;;;;;;;;;;;;;;;;;;;;;
"vermillionaire";"1986";;"Windows 7";"Rachel's Experiment (SCIAT)";"1.0";"1";"1";"1";"1";"1";"1";"2014-09-11 13:45:03.781";"2014-09-11 14:00:16.748";"1";"1";"1";"0";"1";"82";"81";"module.training_block2.exec-4614.GoNoGo2";;;;;;;;;;;;;"1250";"2014-09-11 13:50:17.614";"NST_correctLoc";"31";"0";"FINISHED";"LEFT";"success";"592";"0";"2014-09-11 13:50:16.364";"3";;;;;;;;;;;;;;;;;;;;;;;;;;;;;;;;;;;;;;;;;;;;;;;;;;;;;;;;;;;;;;;;;;;;;;;;;;;
"vermillionaire";"1986";;"Windows 7";"Rachel's Experiment (SCIAT)";"1.0";"1";"1";"1";"1";"1";"1";"2014-09-11 13:45:03.781";"2014-09-11 14:00:16.748";"1";"1";"1";"0";"1";"83";"82";"module.training_block2.exec-4614.GoNoGo2";;;;;;;;;;;;;"1249";"2014-09-11 13:50:20.140";"ST_correctStop";"20";"1";"FINISHED";"NONE";"success";"0";"1";"2014-09-11 13:50:18.890";"3";;;;;;;;;;;;;;;;;;;;;;;;;;;;;;;;;;;;;;;;;;;;;;;;;;;;;;;;;;;;;;;;;;;;;;;;;;;
"vermillionaire";"1986";;"Windows 7";"Rachel's Experiment (SCIAT)";"1.0";"1";"1";"1";"1";"1";"1";"2014-09-11 13:45:03.781";"2014-09-11 14:00:16.748";"1";"1";"1";"0";"1";"84";"83";"module.training_block2.exec-4614.GoNoGo2";;;;;;;;;;;;;"1249";"2014-09-11 13:50:22.668";"NST_correctLoc";"17";"1";"FINISHED";"RIGHT";"success";"801";"0";"2014-09-11 13:50:21.418";"2";;;;;;;;;;;;;;;;;;;;;;;;;;;;;;;;;;;;;;;;;;;;;;;;;;;;;;;;;;;;;;;;;;;;;;;;;;;
"vermillionaire";"1986";;"Windows 7";"Rachel's Experiment (SCIAT)";"1.0";"1";"1";"1";"1";"1";"1";"2014-09-11 13:45:03.781";"2014-09-11 14:00:16.748";"1";"1";"1";"0";"1";"85";"84";"module.training_block2.exec-4614.GoNoGo2";;;;;;;;;;;;;"1249";"2014-09-11 13:50:25.188";"ST_correctStop";"4";"1";"FINISHED";"NONE";"success";"0";"1";"2014-09-11 13:50:23.938";"1";;;;;;;;;;;;;;;;;;;;;;;;;;;;;;;;;;;;;;;;;;;;;;;;;;;;;;;;;;;;;;;;;;;;;;;;;;;
"vermillionaire";"1986";;"Windows 7";"Rachel's Experiment (SCIAT)";"1.0";"1";"1";"1";"1";"1";"1";"2014-09-11 13:45:03.781";"2014-09-11 14:00:16.748";"1";"1";"1";"0";"1";"86";"85";"module.training_block2.exec-4614.GoNoGo2";;;;;;;;;;;;;"1249";"2014-09-11 13:50:27.715";"ST_correctStop";"6";"1";"FINISHED";"NONE";"success";"0";"1";"2014-09-11 13:50:26.465";"1";;;;;;;;;;;;;;;;;;;;;;;;;;;;;;;;;;;;;;;;;;;;;;;;;;;;;;;;;;;;;;;;;;;;;;;;;;;
"vermillionaire";"1986";;"Windows 7";"Rachel's Experiment (SCIAT)";"1.0";"1";"1";"1";"1";"1";"1";"2014-09-11 13:45:03.781";"2014-09-11 14:00:16.748";"1";"1";"1";"0";"1";"87";"86";"module.training_block2.exec-4614.GoNoGo2";;;;;;;;;;;;;"1249";"2014-09-11 13:50:30.239";"NST_correctLoc";"14";"0";"FINISHED";"LEFT";"success";"510";"0";"2014-09-11 13:50:28.989";"2";;;;;;;;;;;;;;;;;;;;;;;;;;;;;;;;;;;;;;;;;;;;;;;;;;;;;;;;;;;;;;;;;;;;;;;;;;;
"vermillionaire";"1986";;"Windows 7";"Rachel's Experiment (SCIAT)";"1.0";"1";"1";"1";"1";"1";"1";"2014-09-11 13:45:03.781";"2014-09-11 14:00:16.748";"1";"1";"1";"0";"1";"88";"87";"module.training_block3.exec-3963.GoNoGo3";;;;;;;;;;;;;;;;;;;;;;;;;"1249";"2014-09-11 13:50:42.268";"ST_correctStop";"7";"0";"FINISHED";"NONE";"success";"0";"1";"2014-09-11 13:50:41.018";"1";;;;;;;;;;;;;;;;;;;;;;;;;;;;;;;;;;;;;;;;;;;;;;;;;;;;;;;;;;;;;;;
"vermillionaire";"1986";;"Windows 7";"Rachel's Experiment (SCIAT)";"1.0";"1";"1";"1";"1";"1";"1";"2014-09-11 13:45:03.781";"2014-09-11 14:00:16.748";"1";"1";"1";"0";"1";"89";"88";"module.training_block3.exec-3963.GoNoGo3";;;;;;;;;;;;;;;;;;;;;;;;;"1249";"2014-09-11 13:50:44.782";"ST_correctStop";"31";"0";"FINISHED";"NONE";"success";"0";"1";"2014-09-11 13:50:43.532";"3";;;;;;;;;;;;;;;;;;;;;;;;;;;;;;;;;;;;;;;;;;;;;;;;;;;;;;;;;;;;;;;
"vermillionaire";"1986";;"Windows 7";"Rachel's Experiment (SCIAT)";"1.0";"1";"1";"1";"1";"1";"1";"2014-09-11 13:45:03.781";"2014-09-11 14:00:16.748";"1";"1";"1";"0";"1";"90";"89";"module.training_block3.exec-3963.GoNoGo3";;;;;;;;;;;;;;;;;;;;;;;;;"1249";"2014-09-11 13:50:47.317";"ST_correctStop";"33";"0";"FINISHED";"NONE";"success";"0";"1";"2014-09-11 13:50:46.067";"3";;;;;;;;;;;;;;;;;;;;;;;;;;;;;;;;;;;;;;;;;;;;;;;;;;;;;;;;;;;;;;;
"vermillionaire";"1986";;"Windows 7";"Rachel's Experiment (SCIAT)";"1.0";"1";"1";"1";"1";"1";"1";"2014-09-11 13:45:03.781";"2014-09-11 14:00:16.748";"1";"1";"1";"0";"1";"91";"90";"module.training_block3.exec-3963.GoNoGo3";;;;;;;;;;;;;;;;;;;;;;;;;"1249";"2014-09-11 13:50:49.841";"ST_correctStop";"3";"0";"FINISHED";"NONE";"success";"0";"1";"2014-09-11 13:50:48.591";"1";;;;;;;;;;;;;;;;;;;;;;;;;;;;;;;;;;;;;;;;;;;;;;;;;;;;;;;;;;;;;;;
"vermillionaire";"1986";;"Windows 7";"Rachel's Experiment (SCIAT)";"1.0";"1";"1";"1";"1";"1";"1";"2014-09-11 13:45:03.781";"2014-09-11 14:00:16.748";"1";"1";"1";"0";"1";"92";"91";"module.training_block3.exec-3963.GoNoGo3";;;;;;;;;;;;;;;;;;;;;;;;;"1249";"2014-09-11 13:50:52.363";"ST_correctStop";"0";"0";"FINISHED";"NONE";"success";"0";"1";"2014-09-11 13:50:51.113";"1";;;;;;;;;;;;;;;;;;;;;;;;;;;;;;;;;;;;;;;;;;;;;;;;;;;;;;;;;;;;;;;
"vermillionaire";"1986";;"Windows 7";"Rachel's Experiment (SCIAT)";"1.0";"1";"1";"1";"1";"1";"1";"2014-09-11 13:45:03.781";"2014-09-11 14:00:16.748";"1";"1";"1";"0";"1";"93";"92";"module.training_block3.exec-3963.GoNoGo3";;;;;;;;;;;;;;;;;;;;;;;;;"1249";"2014-09-11 13:50:54.883";"ST_correctStop";"5";"0";"FINISHED";"NONE";"success";"0";"1";"2014-09-11 13:50:53.633";"1";;;;;;;;;;;;;;;;;;;;;;;;;;;;;;;;;;;;;;;;;;;;;;;;;;;;;;;;;;;;;;;
"vermillionaire";"1986";;"Windows 7";"Rachel's Experiment (SCIAT)";"1.0";"1";"1";"1";"1";"1";"1";"2014-09-11 13:45:03.781";"2014-09-11 14:00:16.748";"1";"1";"1";"0";"1";"94";"93";"module.training_block3.exec-3963.GoNoGo3";;;;;;;;;;;;;;;;;;;;;;;;;"1249";"2014-09-11 13:50:57.404";"ST_correctStop";"21";"0";"FINISHED";"NONE";"success";"0";"1";"2014-09-11 13:50:56.154";"3";;;;;;;;;;;;;;;;;;;;;;;;;;;;;;;;;;;;;;;;;;;;;;;;;;;;;;;;;;;;;;;
"vermillionaire";"1986";;"Windows 7";"Rachel's Experiment (SCIAT)";"1.0";"1";"1";"1";"1";"1";"1";"2014-09-11 13:45:03.781";"2014-09-11 14:00:16.748";"1";"1";"1";"0";"1";"95";"94";"module.training_block3.exec-3963.GoNoGo3";;;;;;;;;;;;;;;;;;;;;;;;;"1249";"2014-09-11 13:50:59.924";"NST_correctLoc";"27";"1";"FINISHED";"RIGHT";"success";"473";"0";"2014-09-11 13:50:58.674";"3";;;;;;;;;;;;;;;;;;;;;;;;;;;;;;;;;;;;;;;;;;;;;;;;;;;;;;;;;;;;;;;
"vermillionaire";"1986";;"Windows 7";"Rachel's Experiment (SCIAT)";"1.0";"1";"1";"1";"1";"1";"1";"2014-09-11 13:45:03.781";"2014-09-11 14:00:16.748";"1";"1";"1";"0";"1";"96";"95";"module.training_block3.exec-3963.GoNoGo3";;;;;;;;;;;;;;;;;;;;;;;;;"1249";"2014-09-11 13:51:02.445";"NST_correctLoc";"15";"1";"FINISHED";"RIGHT";"success";"529";"0";"2014-09-11 13:51:01.195";"2";;;;;;;;;;;;;;;;;;;;;;;;;;;;;;;;;;;;;;;;;;;;;;;;;;;;;;;;;;;;;;;
"vermillionaire";"1986";;"Windows 7";"Rachel's Experiment (SCIAT)";"1.0";"1";"1";"1";"1";"1";"1";"2014-09-11 13:45:03.781";"2014-09-11 14:00:16.748";"1";"1";"1";"0";"1";"97";"96";"module.training_block3.exec-3963.GoNoGo3";;;;;;;;;;;;;;;;;;;;;;;;;"1249";"2014-09-11 13:51:04.970";"NST_correctLoc";"29";"0";"FINISHED";"LEFT";"success";"420";"0";"2014-09-11 13:51:03.720";"3";;;;;;;;;;;;;;;;;;;;;;;;;;;;;;;;;;;;;;;;;;;;;;;;;;;;;;;;;;;;;;;
"vermillionaire";"1986";;"Windows 7";"Rachel's Experiment (SCIAT)";"1.0";"1";"1";"1";"1";"1";"1";"2014-09-11 13:45:03.781";"2014-09-11 14:00:16.748";"1";"1";"1";"0";"1";"98";"97";"module.training_block3.exec-3963.GoNoGo3";;;;;;;;;;;;;;;;;;;;;;;;;"1249";"2014-09-11 13:51:07.496";"ST_correctStop";"2";"1";"FINISHED";"NONE";"success";"0";"1";"2014-09-11 13:51:06.246";"1";;;;;;;;;;;;;;;;;;;;;;;;;;;;;;;;;;;;;;;;;;;;;;;;;;;;;;;;;;;;;;;
"vermillionaire";"1986";;"Windows 7";"Rachel's Experiment (SCIAT)";"1.0";"1";"1";"1";"1";"1";"1";"2014-09-11 13:45:03.781";"2014-09-11 14:00:16.748";"1";"1";"1";"0";"1";"99";"98";"module.training_block3.exec-3963.GoNoGo3";;;;;;;;;;;;;;;;;;;;;;;;;"1249";"2014-09-11 13:51:10.021";"NST_correctLoc";"14";"0";"FINISHED";"LEFT";"success";"537";"0";"2014-09-11 13:51:08.771";"2";;;;;;;;;;;;;;;;;;;;;;;;;;;;;;;;;;;;;;;;;;;;;;;;;;;;;;;;;;;;;;;
"vermillionaire";"1986";;"Windows 7";"Rachel's Experiment (SCIAT)";"1.0";"1";"1";"1";"1";"1";"1";"2014-09-11 13:45:03.781";"2014-09-11 14:00:16.748";"1";"1";"1";"0";"1";"100";"99";"module.training_block3.exec-3963.GoNoGo3";;;;;;;;;;;;;;;;;;;;;;;;;"1249";"2014-09-11 13:51:12.547";"ST_correctStop";"8";"0";"FINISHED";"NONE";"success";"0";"1";"2014-09-11 13:51:11.297";"1";;;;;;;;;;;;;;;;;;;;;;;;;;;;;;;;;;;;;;;;;;;;;;;;;;;;;;;;;;;;;;;
"vermillionaire";"1986";;"Windows 7";"Rachel's Experiment (SCIAT)";"1.0";"1";"1";"1";"1";"1";"1";"2014-09-11 13:45:03.781";"2014-09-11 14:00:16.748";"1";"1";"1";"0";"1";"101";"100";"module.training_block3.exec-3963.GoNoGo3";;;;;;;;;;;;;;;;;;;;;;;;;"1249";"2014-09-11 13:51:15.071";"NST_correctLoc";"17";"0";"FINISHED";"LEFT";"success";"719";"0";"2014-09-11 13:51:13.821";"2";;;;;;;;;;;;;;;;;;;;;;;;;;;;;;;;;;;;;;;;;;;;;;;;;;;;;;;;;;;;;;;
"vermillionaire";"1986";;"Windows 7";"Rachel's Experiment (SCIAT)";"1.0";"1";"1";"1";"1";"1";"1";"2014-09-11 13:45:03.781";"2014-09-11 14:00:16.748";"1";"1";"1";"0";"1";"102";"101";"module.training_block3.exec-3963.GoNoGo3";;;;;;;;;;;;;;;;;;;;;;;;;"1249";"2014-09-11 13:51:17.592";"NST_correctLoc";"24";"1";"FINISHED";"RIGHT";"success";"517";"0";"2014-09-11 13:51:16.342";"3";;;;;;;;;;;;;;;;;;;;;;;;;;;;;;;;;;;;;;;;;;;;;;;;;;;;;;;;;;;;;;;
"vermillionaire";"1986";;"Windows 7";"Rachel's Experiment (SCIAT)";"1.0";"1";"1";"1";"1";"1";"1";"2014-09-11 13:45:03.781";"2014-09-11 14:00:16.748";"1";"1";"1";"0";"1";"103";"102";"module.training_block3.exec-3963.GoNoGo3";;;;;;;;;;;;;;;;;;;;;;;;;"1249";"2014-09-11 13:51:20.113";"ST_correctStop";"35";"1";"FINISHED";"NONE";"success";"0";"1";"2014-09-11 13:51:18.863";"3";;;;;;;;;;;;;;;;;;;;;;;;;;;;;;;;;;;;;;;;;;;;;;;;;;;;;;;;;;;;;;;
"vermillionaire";"1986";;"Windows 7";"Rachel's Experiment (SCIAT)";"1.0";"1";"1";"1";"1";"1";"1";"2014-09-11 13:45:03.781";"2014-09-11 14:00:16.748";"1";"1";"1";"0";"1";"104";"103";"module.training_block3.exec-3963.GoNoGo3";;;;;;;;;;;;;;;;;;;;;;;;;"1249";"2014-09-11 13:51:22.634";"NST_correctLoc";"26";"1";"FINISHED";"RIGHT";"success";"580";"0";"2014-09-11 13:51:21.384";"3";;;;;;;;;;;;;;;;;;;;;;;;;;;;;;;;;;;;;;;;;;;;;;;;;;;;;;;;;;;;;;;
"vermillionaire";"1986";;"Windows 7";"Rachel's Experiment (SCIAT)";"1.0";"1";"1";"1";"1";"1";"1";"2014-09-11 13:45:03.781";"2014-09-11 14:00:16.748";"1";"1";"1";"0";"1";"105";"104";"module.training_block3.exec-3963.GoNoGo3";;;;;;;;;;;;;;;;;;;;;;;;;"1249";"2014-09-11 13:51:25.154";"ST_correctStop";"30";"0";"FINISHED";"NONE";"success";"0";"1";"2014-09-11 13:51:23.904";"3";;;;;;;;;;;;;;;;;;;;;;;;;;;;;;;;;;;;;;;;;;;;;;;;;;;;;;;;;;;;;;;
"vermillionaire";"1986";;"Windows 7";"Rachel's Experiment (SCIAT)";"1.0";"1";"1";"1";"1";"1";"1";"2014-09-11 13:45:03.781";"2014-09-11 14:00:16.748";"1";"1";"1";"0";"1";"106";"105";"module.training_block3.exec-3963.GoNoGo3";;;;;;;;;;;;;;;;;;;;;;;;;"1249";"2014-09-11 13:51:27.674";"NST_correctLoc";"12";"1";"FINISHED";"RIGHT";"success";"563";"0";"2014-09-11 13:51:26.424";"2";;;;;;;;;;;;;;;;;;;;;;;;;;;;;;;;;;;;;;;;;;;;;;;;;;;;;;;;;;;;;;;
"vermillionaire";"1986";;"Windows 7";"Rachel's Experiment (SCIAT)";"1.0";"1";"1";"1";"1";"1";"1";"2014-09-11 13:45:03.781";"2014-09-11 14:00:16.748";"1";"1";"1";"0";"1";"107";"106";"module.training_block3.exec-3963.GoNoGo3";;;;;;;;;;;;;;;;;;;;;;;;;"1249";"2014-09-11 13:51:30.198";"ST_correctStop";"6";"1";"FINISHED";"NONE";"success";"0";"1";"2014-09-11 13:51:28.948";"1";;;;;;;;;;;;;;;;;;;;;;;;;;;;;;;;;;;;;;;;;;;;;;;;;;;;;;;;;;;;;;;
"vermillionaire";"1986";;"Windows 7";"Rachel's Experiment (SCIAT)";"1.0";"1";"1";"1";"1";"1";"1";"2014-09-11 13:45:03.781";"2014-09-11 14:00:16.748";"1";"1";"1";"0";"1";"108";"107";"module.training_block3.exec-3963.GoNoGo3";;;;;;;;;;;;;;;;;;;;;;;;;"1249";"2014-09-11 13:51:32.716";"ST_correctStop";"20";"0";"FINISHED";"NONE";"success";"0";"1";"2014-09-11 13:51:31.466";"3";;;;;;;;;;;;;;;;;;;;;;;;;;;;;;;;;;;;;;;;;;;;;;;;;;;;;;;;;;;;;;;
"vermillionaire";"1986";;"Windows 7";"Rachel's Experiment (SCIAT)";"1.0";"1";"1";"1";"1";"1";"1";"2014-09-11 13:45:03.781";"2014-09-11 14:00:16.748";"1";"1";"1";"0";"1";"109";"108";"module.training_block3.exec-3963.GoNoGo3";;;;;;;;;;;;;;;;;;;;;;;;;"1250";"2014-09-11 13:51:35.243";"NST_correctLoc";"13";"1";"FINISHED";"RIGHT";"success";"516";"0";"2014-09-11 13:51:33.993";"2";;;;;;;;;;;;;;;;;;;;;;;;;;;;;;;;;;;;;;;;;;;;;;;;;;;;;;;;;;;;;;;
"vermillionaire";"1986";;"Windows 7";"Rachel's Experiment (SCIAT)";"1.0";"1";"1";"1";"1";"1";"1";"2014-09-11 13:45:03.781";"2014-09-11 14:00:16.748";"1";"1";"1";"0";"1";"110";"109";"module.training_block3.exec-3963.GoNoGo3";;;;;;;;;;;;;;;;;;;;;;;;;"1249";"2014-09-11 13:51:37.767";"NST_correctLoc";"22";"1";"FINISHED";"RIGHT";"success";"599";"0";"2014-09-11 13:51:36.517";"3";;;;;;;;;;;;;;;;;;;;;;;;;;;;;;;;;;;;;;;;;;;;;;;;;;;;;;;;;;;;;;;
"vermillionaire";"1986";;"Windows 7";"Rachel's Experiment (SCIAT)";"1.0";"1";"1";"1";"1";"1";"1";"2014-09-11 13:45:03.781";"2014-09-11 14:00:16.748";"1";"1";"1";"0";"1";"111";"110";"module.training_block3.exec-3963.GoNoGo3";;;;;;;;;;;;;;;;;;;;;;;;;"1249";"2014-09-11 13:51:40.291";"NST_correctLoc";"19";"0";"FINISHED";"LEFT";"success";"538";"0";"2014-09-11 13:51:39.041";"3";;;;;;;;;;;;;;;;;;;;;;;;;;;;;;;;;;;;;;;;;;;;;;;;;;;;;;;;;;;;;;;
"vermillionaire";"1986";;"Windows 7";"Rachel's Experiment (SCIAT)";"1.0";"1";"1";"1";"1";"1";"1";"2014-09-11 13:45:03.781";"2014-09-11 14:00:16.748";"1";"1";"1";"0";"1";"112";"111";"module.training_block3.exec-3963.GoNoGo3";;;;;;;;;;;;;;;;;;;;;;;;;"1249";"2014-09-11 13:51:42.816";"NST_correctLoc";"16";"0";"FINISHED";"LEFT";"success";"526";"0";"2014-09-11 13:51:41.566";"2";;;;;;;;;;;;;;;;;;;;;;;;;;;;;;;;;;;;;;;;;;;;;;;;;;;;;;;;;;;;;;;
"vermillionaire";"1986";;"Windows 7";"Rachel's Experiment (SCIAT)";"1.0";"1";"1";"1";"1";"1";"1";"2014-09-11 13:45:03.781";"2014-09-11 14:00:16.748";"1";"1";"1";"0";"1";"113";"112";"module.training_block3.exec-3963.GoNoGo3";;;;;;;;;;;;;;;;;;;;;;;;;"1249";"2014-09-11 13:51:45.340";"ST_correctStop";"25";"1";"FINISHED";"NONE";"success";"0";"1";"2014-09-11 13:51:44.090";"3";;;;;;;;;;;;;;;;;;;;;;;;;;;;;;;;;;;;;;;;;;;;;;;;;;;;;;;;;;;;;;;
"vermillionaire";"1986";;"Windows 7";"Rachel's Experiment (SCIAT)";"1.0";"1";"1";"1";"1";"1";"1";"2014-09-11 13:45:03.781";"2014-09-11 14:00:16.748";"1";"1";"1";"0";"1";"114";"113";"module.training_block3.exec-3963.GoNoGo3";;;;;;;;;;;;;;;;;;;;;;;;;"1249";"2014-09-11 13:51:47.861";"NST_correctLoc";"11";"0";"FINISHED";"LEFT";"success";"505";"0";"2014-09-11 13:51:46.611";"2";;;;;;;;;;;;;;;;;;;;;;;;;;;;;;;;;;;;;;;;;;;;;;;;;;;;;;;;;;;;;;;
"vermillionaire";"1986";;"Windows 7";"Rachel's Experiment (SCIAT)";"1.0";"1";"1";"1";"1";"1";"1";"2014-09-11 13:45:03.781";"2014-09-11 14:00:16.748";"1";"1";"1";"0";"1";"115";"114";"module.training_block3.exec-3963.GoNoGo3";;;;;;;;;;;;;;;;;;;;;;;;;"1249";"2014-09-11 13:51:50.386";"NST_correctLoc";"9";"0";"FINISHED";"LEFT";"success";"396";"0";"2014-09-11 13:51:49.136";"2";;;;;;;;;;;;;;;;;;;;;;;;;;;;;;;;;;;;;;;;;;;;;;;;;;;;;;;;;;;;;;;
"vermillionaire";"1986";;"Windows 7";"Rachel's Experiment (SCIAT)";"1.0";"1";"1";"1";"1";"1";"1";"2014-09-11 13:45:03.781";"2014-09-11 14:00:16.748";"1";"1";"1";"0";"1";"116";"115";"module.training_block3.exec-3963.GoNoGo3";;;;;;;;;;;;;;;;;;;;;;;;;"1250";"2014-09-11 13:51:52.911";"NST_correctLoc";"34";"0";"FINISHED";"LEFT";"success";"560";"0";"2014-09-11 13:51:51.661";"3";;;;;;;;;;;;;;;;;;;;;;;;;;;;;;;;;;;;;;;;;;;;;;;;;;;;;;;;;;;;;;;
"vermillionaire";"1986";;"Windows 7";"Rachel's Experiment (SCIAT)";"1.0";"1";"1";"1";"1";"1";"1";"2014-09-11 13:45:03.781";"2014-09-11 14:00:16.748";"1";"1";"1";"0";"1";"117";"116";"module.training_block3.exec-3963.GoNoGo3";;;;;;;;;;;;;;;;;;;;;;;;;"1250";"2014-09-11 13:51:55.435";"ST_correctStop";"1";"0";"FINISHED";"NONE";"success";"0";"1";"2014-09-11 13:51:54.185";"1";;;;;;;;;;;;;;;;;;;;;;;;;;;;;;;;;;;;;;;;;;;;;;;;;;;;;;;;;;;;;;;
"vermillionaire";"1986";;"Windows 7";"Rachel's Experiment (SCIAT)";"1.0";"1";"1";"1";"1";"1";"1";"2014-09-11 13:45:03.781";"2014-09-11 14:00:16.748";"1";"1";"1";"0";"1";"118";"117";"module.training_block3.exec-3963.GoNoGo3";;;;;;;;;;;;;;;;;;;;;;;;;"1249";"2014-09-11 13:51:57.958";"NST_correctLoc";"23";"1";"FINISHED";"RIGHT";"success";"424";"0";"2014-09-11 13:51:56.708";"3";;;;;;;;;;;;;;;;;;;;;;;;;;;;;;;;;;;;;;;;;;;;;;;;;;;;;;;;;;;;;;;
"vermillionaire";"1986";;"Windows 7";"Rachel's Experiment (SCIAT)";"1.0";"1";"1";"1";"1";"1";"1";"2014-09-11 13:45:03.781";"2014-09-11 14:00:16.748";"1";"1";"1";"0";"1";"119";"118";"module.training_block3.exec-3963.GoNoGo3";;;;;;;;;;;;;;;;;;;;;;;;;"1250";"2014-09-11 13:52:00.475";"ST_correctStop";"32";"1";"FINISHED";"NONE";"success";"0";"1";"2014-09-11 13:51:59.225";"3";;;;;;;;;;;;;;;;;;;;;;;;;;;;;;;;;;;;;;;;;;;;;;;;;;;;;;;;;;;;;;;
"vermillionaire";"1986";;"Windows 7";"Rachel's Experiment (SCIAT)";"1.0";"1";"1";"1";"1";"1";"1";"2014-09-11 13:45:03.781";"2014-09-11 14:00:16.748";"1";"1";"1";"0";"1";"120";"119";"module.training_block3.exec-3963.GoNoGo3";;;;;;;;;;;;;;;;;;;;;;;;;"1250";"2014-09-11 13:52:03.000";"ST_correctStop";"4";"0";"FINISHED";"NONE";"success";"0";"1";"2014-09-11 13:52:01.750";"1";;;;;;;;;;;;;;;;;;;;;;;;;;;;;;;;;;;;;;;;;;;;;;;;;;;;;;;;;;;;;;;
"vermillionaire";"1986";;"Windows 7";"Rachel's Experiment (SCIAT)";"1.0";"1";"1";"1";"1";"1";"1";"2014-09-11 13:45:03.781";"2014-09-11 14:00:16.748";"1";"1";"1";"0";"1";"121";"120";"module.training_block3.exec-3963.GoNoGo3";;;;;;;;;;;;;;;;;;;;;;;;;"1250";"2014-09-11 13:52:05.523";"NST_correctLoc";"10";"0";"FINISHED";"LEFT";"success";"683";"0";"2014-09-11 13:52:04.273";"2";;;;;;;;;;;;;;;;;;;;;;;;;;;;;;;;;;;;;;;;;;;;;;;;;;;;;;;;;;;;;;;
"vermillionaire";"1986";;"Windows 7";"Rachel's Experiment (SCIAT)";"1.0";"1";"1";"1";"1";"1";"1";"2014-09-11 13:45:03.781";"2014-09-11 14:00:16.748";"1";"1";"1";"0";"1";"122";"121";"module.training_block3.exec-3963.GoNoGo3";;;;;;;;;;;;;;;;;;;;;;;;;"1249";"2014-09-11 13:52:08.046";"ST_correctStop";"28";"1";"FINISHED";"NONE";"success";"0";"1";"2014-09-11 13:52:06.796";"3";;;;;;;;;;;;;;;;;;;;;;;;;;;;;;;;;;;;;;;;;;;;;;;;;;;;;;;;;;;;;;;
"vermillionaire";"1986";;"Windows 7";"Rachel's Experiment (SCIAT)";"1.0";"1";"1";"1";"1";"1";"1";"2014-09-11 13:45:03.781";"2014-09-11 14:00:16.748";"1";"1";"1";"0";"1";"123";"122";"module.training_block3.exec-3963.GoNoGo3";;;;;;;;;;;;;;;;;;;;;;;;;"1249";"2014-09-11 13:52:10.569";"NST_correctLoc";"18";"1";"FINISHED";"RIGHT";"success";"805";"0";"2014-09-11 13:52:09.319";"3";;;;;;;;;;;;;;;;;;;;;;;;;;;;;;;;;;;;;;;;;;;;;;;;;;;;;;;;;;;;;;;
"vermillionaire";"1986";;"Windows 7";"Rachel's Experiment (SCIAT)";"1.0";"1";"1";"1";"1";"1";"1";"2014-09-11 13:45:03.781";"2014-09-11 14:00:16.748";"1";"1";"1";"0";"1";"124";"123";"module.training_block4.exec-8856.GoNoGo4";;;;;;;;;;;;;;;;;;;;;;;;;;;;;;;;;;;;;"1249";"2014-09-11 13:52:21.823";"NST_correctLoc";"9";"1";"FINISHED";"RIGHT";"success";"864";"0";"2014-09-11 13:52:20.573";"2";;;;;;;;;;;;;;;;;;;;;;;;;;;;;;;;;;;;;;;;;;;;;;;;;;;
"vermillionaire";"1986";;"Windows 7";"Rachel's Experiment (SCIAT)";"1.0";"1";"1";"1";"1";"1";"1";"2014-09-11 13:45:03.781";"2014-09-11 14:00:16.748";"1";"1";"1";"0";"1";"125";"124";"module.training_block4.exec-8856.GoNoGo4";;;;;;;;;;;;;;;;;;;;;;;;;;;;;;;;;;;;;"1249";"2014-09-11 13:52:24.343";"ST_correctStop";"5";"0";"FINISHED";"NONE";"success";"0";"1";"2014-09-11 13:52:23.093";"1";;;;;;;;;;;;;;;;;;;;;;;;;;;;;;;;;;;;;;;;;;;;;;;;;;;
"vermillionaire";"1986";;"Windows 7";"Rachel's Experiment (SCIAT)";"1.0";"1";"1";"1";"1";"1";"1";"2014-09-11 13:45:03.781";"2014-09-11 14:00:16.748";"1";"1";"1";"0";"1";"126";"125";"module.training_block4.exec-8856.GoNoGo4";;;;;;;;;;;;;;;;;;;;;;;;;;;;;;;;;;;;;"1250";"2014-09-11 13:52:26.864";"ST_correctStop";"29";"1";"FINISHED";"NONE";"success";"0";"1";"2014-09-11 13:52:25.614";"3";;;;;;;;;;;;;;;;;;;;;;;;;;;;;;;;;;;;;;;;;;;;;;;;;;;
"vermillionaire";"1986";;"Windows 7";"Rachel's Experiment (SCIAT)";"1.0";"1";"1";"1";"1";"1";"1";"2014-09-11 13:45:03.781";"2014-09-11 14:00:16.748";"1";"1";"1";"0";"1";"127";"126";"module.training_block4.exec-8856.GoNoGo4";;;;;;;;;;;;;;;;;;;;;;;;;;;;;;;;;;;;;"1249";"2014-09-11 13:52:29.383";"NST_correctLoc";"26";"0";"FINISHED";"LEFT";"success";"631";"0";"2014-09-11 13:52:28.133";"3";;;;;;;;;;;;;;;;;;;;;;;;;;;;;;;;;;;;;;;;;;;;;;;;;;;
"vermillionaire";"1986";;"Windows 7";"Rachel's Experiment (SCIAT)";"1.0";"1";"1";"1";"1";"1";"1";"2014-09-11 13:45:03.781";"2014-09-11 14:00:16.748";"1";"1";"1";"0";"1";"128";"127";"module.training_block4.exec-8856.GoNoGo4";;;;;;;;;;;;;;;;;;;;;;;;;;;;;;;;;;;;;"1250";"2014-09-11 13:52:31.903";"NST_correctLoc";"16";"0";"FINISHED";"LEFT";"success";"464";"0";"2014-09-11 13:52:30.653";"2";;;;;;;;;;;;;;;;;;;;;;;;;;;;;;;;;;;;;;;;;;;;;;;;;;;
"vermillionaire";"1986";;"Windows 7";"Rachel's Experiment (SCIAT)";"1.0";"1";"1";"1";"1";"1";"1";"2014-09-11 13:45:03.781";"2014-09-11 14:00:16.748";"1";"1";"1";"0";"1";"129";"128";"module.training_block4.exec-8856.GoNoGo4";;;;;;;;;;;;;;;;;;;;;;;;;;;;;;;;;;;;;"1249";"2014-09-11 13:52:34.422";"ST_failedStop";"4";"1";"FINISHED";"RIGHT";"failure";"392";"1";"2014-09-11 13:52:33.172";"1";;;;;;;;;;;;;;;;;;;;;;;;;;;;;;;;;;;;;;;;;;;;;;;;;;;
"vermillionaire";"1986";;"Windows 7";"Rachel's Experiment (SCIAT)";"1.0";"1";"1";"1";"1";"1";"1";"2014-09-11 13:45:03.781";"2014-09-11 14:00:16.748";"1";"1";"1";"0";"1";"130";"129";"module.training_block4.exec-8856.GoNoGo4";;;;;;;;;;;;;;;;;;;;;;;;;;;;;;;;;;;;;"1250";"2014-09-11 13:52:36.943";"ST_correctStop";"32";"1";"FINISHED";"NONE";"success";"0";"1";"2014-09-11 13:52:35.693";"3";;;;;;;;;;;;;;;;;;;;;;;;;;;;;;;;;;;;;;;;;;;;;;;;;;;
"vermillionaire";"1986";;"Windows 7";"Rachel's Experiment (SCIAT)";"1.0";"1";"1";"1";"1";"1";"1";"2014-09-11 13:45:03.781";"2014-09-11 14:00:16.748";"1";"1";"1";"0";"1";"131";"130";"module.training_block4.exec-8856.GoNoGo4";;;;;;;;;;;;;;;;;;;;;;;;;;;;;;;;;;;;;"1249";"2014-09-11 13:52:39.462";"NST_correctLoc";"33";"1";"FINISHED";"RIGHT";"success";"680";"0";"2014-09-11 13:52:38.212";"3";;;;;;;;;;;;;;;;;;;;;;;;;;;;;;;;;;;;;;;;;;;;;;;;;;;
"vermillionaire";"1986";;"Windows 7";"Rachel's Experiment (SCIAT)";"1.0";"1";"1";"1";"1";"1";"1";"2014-09-11 13:45:03.781";"2014-09-11 14:00:16.748";"1";"1";"1";"0";"1";"132";"131";"module.training_block4.exec-8856.GoNoGo4";;;;;;;;;;;;;;;;;;;;;;;;;;;;;;;;;;;;;"1250";"2014-09-11 13:52:41.982";"NST_correctLoc";"21";"1";"FINISHED";"RIGHT";"success";"465";"0";"2014-09-11 13:52:40.732";"3";;;;;;;;;;;;;;;;;;;;;;;;;;;;;;;;;;;;;;;;;;;;;;;;;;;
"vermillionaire";"1986";;"Windows 7";"Rachel's Experiment (SCIAT)";"1.0";"1";"1";"1";"1";"1";"1";"2014-09-11 13:45:03.781";"2014-09-11 14:00:16.748";"1";"1";"1";"0";"1";"133";"132";"module.training_block4.exec-8856.GoNoGo4";;;;;;;;;;;;;;;;;;;;;;;;;;;;;;;;;;;;;"1249";"2014-09-11 13:52:44.502";"NST_correctLoc";"13";"0";"FINISHED";"LEFT";"success";"456";"0";"2014-09-11 13:52:43.252";"2";;;;;;;;;;;;;;;;;;;;;;;;;;;;;;;;;;;;;;;;;;;;;;;;;;;
"vermillionaire";"1986";;"Windows 7";"Rachel's Experiment (SCIAT)";"1.0";"1";"1";"1";"1";"1";"1";"2014-09-11 13:45:03.781";"2014-09-11 14:00:16.748";"1";"1";"1";"0";"1";"134";"133";"module.training_block4.exec-8856.GoNoGo4";;;;;;;;;;;;;;;;;;;;;;;;;;;;;;;;;;;;;"1250";"2014-09-11 13:52:47.022";"ST_failedStop";"31";"1";"FINISHED";"RIGHT";"failure";"385";"1";"2014-09-11 13:52:45.772";"3";;;;;;;;;;;;;;;;;;;;;;;;;;;;;;;;;;;;;;;;;;;;;;;;;;;
"vermillionaire";"1986";;"Windows 7";"Rachel's Experiment (SCIAT)";"1.0";"1";"1";"1";"1";"1";"1";"2014-09-11 13:45:03.781";"2014-09-11 14:00:16.748";"1";"1";"1";"0";"1";"135";"134";"module.training_block4.exec-8856.GoNoGo4";;;;;;;;;;;;;;;;;;;;;;;;;;;;;;;;;;;;;"1249";"2014-09-11 13:52:49.541";"ST_correctStop";"35";"0";"FINISHED";"NONE";"success";"0";"1";"2014-09-11 13:52:48.291";"3";;;;;;;;;;;;;;;;;;;;;;;;;;;;;;;;;;;;;;;;;;;;;;;;;;;
"vermillionaire";"1986";;"Windows 7";"Rachel's Experiment (SCIAT)";"1.0";"1";"1";"1";"1";"1";"1";"2014-09-11 13:45:03.781";"2014-09-11 14:00:16.748";"1";"1";"1";"0";"1";"136";"135";"module.training_block4.exec-8856.GoNoGo4";;;;;;;;;;;;;;;;;;;;;;;;;;;;;;;;;;;;;"1250";"2014-09-11 13:52:52.063";"ST_correctStop";"24";"1";"FINISHED";"NONE";"success";"0";"1";"2014-09-11 13:52:50.813";"3";;;;;;;;;;;;;;;;;;;;;;;;;;;;;;;;;;;;;;;;;;;;;;;;;;;
"vermillionaire";"1986";;"Windows 7";"Rachel's Experiment (SCIAT)";"1.0";"1";"1";"1";"1";"1";"1";"2014-09-11 13:45:03.781";"2014-09-11 14:00:16.748";"1";"1";"1";"0";"1";"137";"136";"module.training_block4.exec-8856.GoNoGo4";;;;;;;;;;;;;;;;;;;;;;;;;;;;;;;;;;;;;"1249";"2014-09-11 13:52:54.583";"NST_correctLoc";"20";"1";"FINISHED";"RIGHT";"success";"855";"0";"2014-09-11 13:52:53.333";"3";;;;;;;;;;;;;;;;;;;;;;;;;;;;;;;;;;;;;;;;;;;;;;;;;;;
"vermillionaire";"1986";;"Windows 7";"Rachel's Experiment (SCIAT)";"1.0";"1";"1";"1";"1";"1";"1";"2014-09-11 13:45:03.781";"2014-09-11 14:00:16.748";"1";"1";"1";"0";"1";"138";"137";"module.training_block4.exec-8856.GoNoGo4";;;;;;;;;;;;;;;;;;;;;;;;;;;;;;;;;;;;;"1249";"2014-09-11 13:52:57.103";"ST_correctStop";"23";"0";"FINISHED";"NONE";"success";"0";"1";"2014-09-11 13:52:55.853";"3";;;;;;;;;;;;;;;;;;;;;;;;;;;;;;;;;;;;;;;;;;;;;;;;;;;
"vermillionaire";"1986";;"Windows 7";"Rachel's Experiment (SCIAT)";"1.0";"1";"1";"1";"1";"1";"1";"2014-09-11 13:45:03.781";"2014-09-11 14:00:16.748";"1";"1";"1";"0";"1";"139";"138";"module.training_block4.exec-8856.GoNoGo4";;;;;;;;;;;;;;;;;;;;;;;;;;;;;;;;;;;;;"1249";"2014-09-11 13:52:59.627";"NST_correctLoc";"34";"1";"FINISHED";"RIGHT";"success";"483";"0";"2014-09-11 13:52:58.377";"3";;;;;;;;;;;;;;;;;;;;;;;;;;;;;;;;;;;;;;;;;;;;;;;;;;;
"vermillionaire";"1986";;"Windows 7";"Rachel's Experiment (SCIAT)";"1.0";"1";"1";"1";"1";"1";"1";"2014-09-11 13:45:03.781";"2014-09-11 14:00:16.748";"1";"1";"1";"0";"1";"140";"139";"module.training_block4.exec-8856.GoNoGo4";;;;;;;;;;;;;;;;;;;;;;;;;;;;;;;;;;;;;"1249";"2014-09-11 13:53:02.145";"NST_correctLoc";"19";"0";"FINISHED";"LEFT";"success";"446";"0";"2014-09-11 13:53:00.895";"3";;;;;;;;;;;;;;;;;;;;;;;;;;;;;;;;;;;;;;;;;;;;;;;;;;;
"vermillionaire";"1986";;"Windows 7";"Rachel's Experiment (SCIAT)";"1.0";"1";"1";"1";"1";"1";"1";"2014-09-11 13:45:03.781";"2014-09-11 14:00:16.748";"1";"1";"1";"0";"1";"141";"140";"module.training_block4.exec-8856.GoNoGo4";;;;;;;;;;;;;;;;;;;;;;;;;;;;;;;;;;;;;"1250";"2014-09-11 13:53:04.665";"ST_correctStop";"2";"0";"FINISHED";"NONE";"success";"0";"1";"2014-09-11 13:53:03.415";"1";;;;;;;;;;;;;;;;;;;;;;;;;;;;;;;;;;;;;;;;;;;;;;;;;;;
"vermillionaire";"1986";;"Windows 7";"Rachel's Experiment (SCIAT)";"1.0";"1";"1";"1";"1";"1";"1";"2014-09-11 13:45:03.781";"2014-09-11 14:00:16.748";"1";"1";"1";"0";"1";"142";"141";"module.training_block4.exec-8856.GoNoGo4";;;;;;;;;;;;;;;;;;;;;;;;;;;;;;;;;;;;;"1249";"2014-09-11 13:53:07.184";"NST_correctLoc";"18";"0";"FINISHED";"LEFT";"success";"639";"0";"2014-09-11 13:53:05.934";"3";;;;;;;;;;;;;;;;;;;;;;;;;;;;;;;;;;;;;;;;;;;;;;;;;;;
"vermillionaire";"1986";;"Windows 7";"Rachel's Experiment (SCIAT)";"1.0";"1";"1";"1";"1";"1";"1";"2014-09-11 13:45:03.781";"2014-09-11 14:00:16.748";"1";"1";"1";"0";"1";"143";"142";"module.training_block4.exec-8856.GoNoGo4";;;;;;;;;;;;;;;;;;;;;;;;;;;;;;;;;;;;;"1250";"2014-09-11 13:53:09.704";"NST_correctLoc";"15";"0";"FINISHED";"LEFT";"success";"551";"0";"2014-09-11 13:53:08.454";"2";;;;;;;;;;;;;;;;;;;;;;;;;;;;;;;;;;;;;;;;;;;;;;;;;;;
"vermillionaire";"1986";;"Windows 7";"Rachel's Experiment (SCIAT)";"1.0";"1";"1";"1";"1";"1";"1";"2014-09-11 13:45:03.781";"2014-09-11 14:00:16.748";"1";"1";"1";"0";"1";"144";"143";"module.training_block4.exec-8856.GoNoGo4";;;;;;;;;;;;;;;;;;;;;;;;;;;;;;;;;;;;;"1249";"2014-09-11 13:53:12.223";"NST_correctLoc";"30";"1";"FINISHED";"RIGHT";"success";"560";"0";"2014-09-11 13:53:10.973";"3";;;;;;;;;;;;;;;;;;;;;;;;;;;;;;;;;;;;;;;;;;;;;;;;;;;
"vermillionaire";"1986";;"Windows 7";"Rachel's Experiment (SCIAT)";"1.0";"1";"1";"1";"1";"1";"1";"2014-09-11 13:45:03.781";"2014-09-11 14:00:16.748";"1";"1";"1";"0";"1";"145";"144";"module.training_block4.exec-8856.GoNoGo4";;;;;;;;;;;;;;;;;;;;;;;;;;;;;;;;;;;;;"1250";"2014-09-11 13:53:14.743";"ST_correctStop";"3";"0";"FINISHED";"NONE";"success";"0";"1";"2014-09-11 13:53:13.493";"1";;;;;;;;;;;;;;;;;;;;;;;;;;;;;;;;;;;;;;;;;;;;;;;;;;;
"vermillionaire";"1986";;"Windows 7";"Rachel's Experiment (SCIAT)";"1.0";"1";"1";"1";"1";"1";"1";"2014-09-11 13:45:03.781";"2014-09-11 14:00:16.748";"1";"1";"1";"0";"1";"146";"145";"module.training_block4.exec-8856.GoNoGo4";;;;;;;;;;;;;;;;;;;;;;;;;;;;;;;;;;;;;"1249";"2014-09-11 13:53:17.262";"ST_failedStop";"7";"0";"FINISHED";"LEFT";"failure";"673";"1";"2014-09-11 13:53:16.012";"1";;;;;;;;;;;;;;;;;;;;;;;;;;;;;;;;;;;;;;;;;;;;;;;;;;;
"vermillionaire";"1986";;"Windows 7";"Rachel's Experiment (SCIAT)";"1.0";"1";"1";"1";"1";"1";"1";"2014-09-11 13:45:03.781";"2014-09-11 14:00:16.748";"1";"1";"1";"0";"1";"147";"146";"module.training_block4.exec-8856.GoNoGo4";;;;;;;;;;;;;;;;;;;;;;;;;;;;;;;;;;;;;"1249";"2014-09-11 13:53:19.783";"ST_correctStop";"25";"0";"FINISHED";"NONE";"success";"0";"1";"2014-09-11 13:53:18.533";"3";;;;;;;;;;;;;;;;;;;;;;;;;;;;;;;;;;;;;;;;;;;;;;;;;;;
"vermillionaire";"1986";;"Windows 7";"Rachel's Experiment (SCIAT)";"1.0";"1";"1";"1";"1";"1";"1";"2014-09-11 13:45:03.781";"2014-09-11 14:00:16.748";"1";"1";"1";"0";"1";"148";"147";"module.training_block4.exec-8856.GoNoGo4";;;;;;;;;;;;;;;;;;;;;;;;;;;;;;;;;;;;;"1249";"2014-09-11 13:53:22.301";"ST_correctStop";"1";"1";"FINISHED";"NONE";"success";"0";"1";"2014-09-11 13:53:21.051";"1";;;;;;;;;;;;;;;;;;;;;;;;;;;;;;;;;;;;;;;;;;;;;;;;;;;
"vermillionaire";"1986";;"Windows 7";"Rachel's Experiment (SCIAT)";"1.0";"1";"1";"1";"1";"1";"1";"2014-09-11 13:45:03.781";"2014-09-11 14:00:16.748";"1";"1";"1";"0";"1";"149";"148";"module.training_block4.exec-8856.GoNoGo4";;;;;;;;;;;;;;;;;;;;;;;;;;;;;;;;;;;;;"1250";"2014-09-11 13:53:24.822";"ST_correctStop";"27";"1";"FINISHED";"NONE";"success";"0";"1";"2014-09-11 13:53:23.572";"3";;;;;;;;;;;;;;;;;;;;;;;;;;;;;;;;;;;;;;;;;;;;;;;;;;;
"vermillionaire";"1986";;"Windows 7";"Rachel's Experiment (SCIAT)";"1.0";"1";"1";"1";"1";"1";"1";"2014-09-11 13:45:03.781";"2014-09-11 14:00:16.748";"1";"1";"1";"0";"1";"150";"149";"module.training_block4.exec-8856.GoNoGo4";;;;;;;;;;;;;;;;;;;;;;;;;;;;;;;;;;;;;"1249";"2014-09-11 13:53:27.342";"NST_correctLoc";"28";"0";"FINISHED";"LEFT";"success";"497";"0";"2014-09-11 13:53:26.092";"3";;;;;;;;;;;;;;;;;;;;;;;;;;;;;;;;;;;;;;;;;;;;;;;;;;;
"vermillionaire";"1986";;"Windows 7";"Rachel's Experiment (SCIAT)";"1.0";"1";"1";"1";"1";"1";"1";"2014-09-11 13:45:03.781";"2014-09-11 14:00:16.748";"1";"1";"1";"0";"1";"151";"150";"module.training_block4.exec-8856.GoNoGo4";;;;;;;;;;;;;;;;;;;;;;;;;;;;;;;;;;;;;"1250";"2014-09-11 13:53:29.862";"NST_correctLoc";"10";"1";"FINISHED";"RIGHT";"success";"569";"0";"2014-09-11 13:53:28.612";"2";;;;;;;;;;;;;;;;;;;;;;;;;;;;;;;;;;;;;;;;;;;;;;;;;;;
"vermillionaire";"1986";;"Windows 7";"Rachel's Experiment (SCIAT)";"1.0";"1";"1";"1";"1";"1";"1";"2014-09-11 13:45:03.781";"2014-09-11 14:00:16.748";"1";"1";"1";"0";"1";"152";"151";"module.training_block4.exec-8856.GoNoGo4";;;;;;;;;;;;;;;;;;;;;;;;;;;;;;;;;;;;;"1250";"2014-09-11 13:53:32.381";"ST_correctStop";"8";"1";"FINISHED";"NONE";"success";"0";"1";"2014-09-11 13:53:31.131";"1";;;;;;;;;;;;;;;;;;;;;;;;;;;;;;;;;;;;;;;;;;;;;;;;;;;
"vermillionaire";"1986";;"Windows 7";"Rachel's Experiment (SCIAT)";"1.0";"1";"1";"1";"1";"1";"1";"2014-09-11 13:45:03.781";"2014-09-11 14:00:16.748";"1";"1";"1";"0";"1";"153";"152";"module.training_block4.exec-8856.GoNoGo4";;;;;;;;;;;;;;;;;;;;;;;;;;;;;;;;;;;;;"1250";"2014-09-11 13:53:34.902";"ST_correctStop";"0";"1";"FINISHED";"NONE";"success";"0";"1";"2014-09-11 13:53:33.652";"1";;;;;;;;;;;;;;;;;;;;;;;;;;;;;;;;;;;;;;;;;;;;;;;;;;;
"vermillionaire";"1986";;"Windows 7";"Rachel's Experiment (SCIAT)";"1.0";"1";"1";"1";"1";"1";"1";"2014-09-11 13:45:03.781";"2014-09-11 14:00:16.748";"1";"1";"1";"0";"1";"154";"153";"module.training_block4.exec-8856.GoNoGo4";;;;;;;;;;;;;;;;;;;;;;;;;;;;;;;;;;;;;"1250";"2014-09-11 13:53:37.418";"ST_correctStop";"6";"1";"FINISHED";"NONE";"success";"0";"1";"2014-09-11 13:53:36.168";"1";;;;;;;;;;;;;;;;;;;;;;;;;;;;;;;;;;;;;;;;;;;;;;;;;;;
"vermillionaire";"1986";;"Windows 7";"Rachel's Experiment (SCIAT)";"1.0";"1";"1";"1";"1";"1";"1";"2014-09-11 13:45:03.781";"2014-09-11 14:00:16.748";"1";"1";"1";"0";"1";"155";"154";"module.training_block4.exec-8856.GoNoGo4";;;;;;;;;;;;;;;;;;;;;;;;;;;;;;;;;;;;;"1250";"2014-09-11 13:53:39.939";"NST_correctLoc";"11";"1";"FINISHED";"RIGHT";"success";"460";"0";"2014-09-11 13:53:38.689";"2";;;;;;;;;;;;;;;;;;;;;;;;;;;;;;;;;;;;;;;;;;;;;;;;;;;
"vermillionaire";"1986";;"Windows 7";"Rachel's Experiment (SCIAT)";"1.0";"1";"1";"1";"1";"1";"1";"2014-09-11 13:45:03.781";"2014-09-11 14:00:16.748";"1";"1";"1";"0";"1";"156";"155";"module.training_block4.exec-8856.GoNoGo4";;;;;;;;;;;;;;;;;;;;;;;;;;;;;;;;;;;;;"1250";"2014-09-11 13:53:42.461";"NST_correctLoc";"17";"1";"FINISHED";"RIGHT";"success";"466";"0";"2014-09-11 13:53:41.211";"2";;;;;;;;;;;;;;;;;;;;;;;;;;;;;;;;;;;;;;;;;;;;;;;;;;;
"vermillionaire";"1986";;"Windows 7";"Rachel's Experiment (SCIAT)";"1.0";"1";"1";"1";"1";"1";"1";"2014-09-11 13:45:03.781";"2014-09-11 14:00:16.748";"1";"1";"1";"0";"1";"157";"156";"module.training_block4.exec-8856.GoNoGo4";;;;;;;;;;;;;;;;;;;;;;;;;;;;;;;;;;;;;"1250";"2014-09-11 13:53:44.981";"ST_correctStop";"22";"0";"FINISHED";"NONE";"success";"0";"1";"2014-09-11 13:53:43.731";"3";;;;;;;;;;;;;;;;;;;;;;;;;;;;;;;;;;;;;;;;;;;;;;;;;;;
"vermillionaire";"1986";;"Windows 7";"Rachel's Experiment (SCIAT)";"1.0";"1";"1";"1";"1";"1";"1";"2014-09-11 13:45:03.781";"2014-09-11 14:00:16.748";"1";"1";"1";"0";"1";"158";"157";"module.training_block4.exec-8856.GoNoGo4";;;;;;;;;;;;;;;;;;;;;;;;;;;;;;;;;;;;;"1249";"2014-09-11 13:53:47.500";"NST_correctLoc";"14";"0";"FINISHED";"LEFT";"success";"531";"0";"2014-09-11 13:53:46.250";"2";;;;;;;;;;;;;;;;;;;;;;;;;;;;;;;;;;;;;;;;;;;;;;;;;;;
"vermillionaire";"1986";;"Windows 7";"Rachel's Experiment (SCIAT)";"1.0";"1";"1";"1";"1";"1";"1";"2014-09-11 13:45:03.781";"2014-09-11 14:00:16.748";"1";"1";"1";"0";"1";"159";"158";"module.training_block4.exec-8856.GoNoGo4";;;;;;;;;;;;;;;;;;;;;;;;;;;;;;;;;;;;;"1249";"2014-09-11 13:53:50.021";"NST_correctLoc";"12";"1";"FINISHED";"RIGHT";"success";"394";"0";"2014-09-11 13:53:48.771";"2";;;;;;;;;;;;;;;;;;;;;;;;;;;;;;;;;;;;;;;;;;;;;;;;;;;
"vermillionaire";"1986";;"Windows 7";"Rachel's Experiment (SCIAT)";"1.0";"1";"1";"1";"1";"1";"1";"2014-09-11 13:45:03.781";"2014-09-11 14:00:16.748";"1";"1";"1";"0";"1";"160";"159";"module.IAT_practice1.exec-3105.IAT_Practice1";;;;;;;;;;;;;;;;;;;;;;;;;;;;;;;;;;;;;;;;;;;;;;;;;;;;;;;;;;;;;;;;;;;;;;;;;;;;;;;;;;;;;;;;;;"1714";"2014-09-11 13:54:11.841";"FINISHED";"NEUTRAL";"success";"1327";"2014-09-11 13:54:10.126";"IAT_Ppractice.csv";"2";"general"
"vermillionaire";"1986";;"Windows 7";"Rachel's Experiment (SCIAT)";"1.0";"1";"1";"1";"1";"1";"1";"2014-09-11 13:45:03.781";"2014-09-11 14:00:16.748";"1";"1";"1";"0";"1";"161";"160";"module.IAT_practice1.exec-3105.IAT_Practice1";;;;;;;;;;;;;;;;;;;;;;;;;;;;;;;;;;;;;;;;;;;;;;;;;;;;;;;;;;;;;;;;;;;;;;;;;;;;;;;;;;;;;;;;;;"1701";"2014-09-11 13:54:13.580";"FINISHED";"PLEASANT";"success";"920";"2014-09-11 13:54:11.877";"IAT_Ppractice.csv";"1";"outstanding"
"vermillionaire";"1986";;"Windows 7";"Rachel's Experiment (SCIAT)";"1.0";"1";"1";"1";"1";"1";"1";"2014-09-11 13:45:03.781";"2014-09-11 14:00:16.748";"1";"1";"1";"0";"1";"162";"161";"module.IAT_practice1.exec-3105.IAT_Practice1";;;;;;;;;;;;;;;;;;;;;;;;;;;;;;;;;;;;;;;;;;;;;;;;;;;;;;;;;;;;;;;;;;;;;;;;;;;;;;;;;;;;;;;;;;"1701";"2014-09-11 13:54:15.319";"FINISHED";"PLEASANT";"success";"717";"2014-09-11 13:54:13.617";"IAT_Ppractice.csv";"1";"tasty"
"vermillionaire";"1986";;"Windows 7";"Rachel's Experiment (SCIAT)";"1.0";"1";"1";"1";"1";"1";"1";"2014-09-11 13:45:03.781";"2014-09-11 14:00:16.748";"1";"1";"1";"0";"1";"163";"162";"module.IAT_practice1.exec-3105.IAT_Practice1";;;;;;;;;;;;;;;;;;;;;;;;;;;;;;;;;;;;;;;;;;;;;;;;;;;;;;;;;;;;;;;;;;;;;;;;;;;;;;;;;;;;;;;;;;"1701";"2014-09-11 13:54:17.064";"FINISHED";"NEUTRAL";"success";"779";"2014-09-11 13:54:15.362";"IAT_Ppractice.csv";"2";"undefined"
"vermillionaire";"1986";;"Windows 7";"Rachel's Experiment (SCIAT)";"1.0";"1";"1";"1";"1";"1";"1";"2014-09-11 13:45:03.781";"2014-09-11 14:00:16.748";"1";"1";"1";"0";"1";"164";"163";"module.IAT_practice1.exec-3105.IAT_Practice1";;;;;;;;;;;;;;;;;;;;;;;;;;;;;;;;;;;;;;;;;;;;;;;;;;;;;;;;;;;;;;;;;;;;;;;;;;;;;;;;;;;;;;;;;;"1701";"2014-09-11 13:54:18.802";"FINISHED";"PLEASANT";"success";"801";"2014-09-11 13:54:17.100";"IAT_Ppractice.csv";"1";"delicious"
"vermillionaire";"1986";;"Windows 7";"Rachel's Experiment (SCIAT)";"1.0";"1";"1";"1";"1";"1";"1";"2014-09-11 13:45:03.781";"2014-09-11 14:00:16.748";"1";"1";"1";"0";"1";"165";"164";"module.IAT_practice1.exec-3105.IAT_Practice1";;;;;;;;;;;;;;;;;;;;;;;;;;;;;;;;;;;;;;;;;;;;;;;;;;;;;;;;;;;;;;;;;;;;;;;;;;;;;;;;;;;;;;;;;;"1701";"2014-09-11 13:54:20.541";"FINISHED";"PLEASANT";"success";"567";"2014-09-11 13:54:18.838";"IAT_Ppractice.csv";"1";"heavenly"
"vermillionaire";"1986";;"Windows 7";"Rachel's Experiment (SCIAT)";"1.0";"1";"1";"1";"1";"1";"1";"2014-09-11 13:45:03.781";"2014-09-11 14:00:16.748";"1";"1";"1";"0";"1";"166";"165";"module.IAT_practice1.exec-3105.IAT_Practice1";;;;;;;;;;;;;;;;;;;;;;;;;;;;;;;;;;;;;;;;;;;;;;;;;;;;;;;;;;;;;;;;;;;;;;;;;;;;;;;;;;;;;;;;;;"1702";"2014-09-11 13:54:22.281";"FINISHED";"NEUTRAL";"success";"747";"2014-09-11 13:54:20.579";"IAT_Ppractice.csv";"2";"adequate"
"vermillionaire";"1986";;"Windows 7";"Rachel's Experiment (SCIAT)";"1.0";"1";"1";"1";"1";"1";"1";"2014-09-11 13:45:03.781";"2014-09-11 14:00:16.748";"1";"1";"1";"0";"1";"167";"166";"module.IAT_practice1.exec-3105.IAT_Practice1";;;;;;;;;;;;;;;;;;;;;;;;;;;;;;;;;;;;;;;;;;;;;;;;;;;;;;;;;;;;;;;;;;;;;;;;;;;;;;;;;;;;;;;;;;"1701";"2014-09-11 13:54:24.170";"FINISHED";"NEUTRAL";"success";"889";"2014-09-11 13:54:22.468";"IAT_Ppractice.csv";"2";"ordinary"
"vermillionaire";"1986";;"Windows 7";"Rachel's Experiment (SCIAT)";"1.0";"1";"1";"1";"1";"1";"1";"2014-09-11 13:45:03.781";"2014-09-11 14:00:16.748";"1";"1";"1";"0";"1";"168";"167";"module.IAT_practice1.exec-3105.IAT_Practice1";;;;;;;;;;;;;;;;;;;;;;;;;;;;;;;;;;;;;;;;;;;;;;;;;;;;;;;;;;;;;;;;;;;;;;;;;;;;;;;;;;;;;;;;;;"1702";"2014-09-11 13:54:25.910";"FINISHED";"PLEASANT";"success";"814";"2014-09-11 13:54:24.208";"IAT_Ppractice.csv";"1";"great"
"vermillionaire";"1986";;"Windows 7";"Rachel's Experiment (SCIAT)";"1.0";"1";"1";"1";"1";"1";"1";"2014-09-11 13:45:03.781";"2014-09-11 14:00:16.748";"1";"1";"1";"0";"1";"169";"168";"module.IAT_practice1.exec-3105.IAT_Practice1";;;;;;;;;;;;;;;;;;;;;;;;;;;;;;;;;;;;;;;;;;;;;;;;;;;;;;;;;;;;;;;;;;;;;;;;;;;;;;;;;;;;;;;;;;"1700";"2014-09-11 13:54:27.634";"FINISHED";"NEUTRAL";"success";"816";"2014-09-11 13:54:25.933";"IAT_Ppractice.csv";"2";"adequate"
"vermillionaire";"1986";;"Windows 7";"Rachel's Experiment (SCIAT)";"1.0";"1";"1";"1";"1";"1";"1";"2014-09-11 13:45:03.781";"2014-09-11 14:00:16.748";"1";"1";"1";"0";"1";"170";"169";"module.IAT_practice1.exec-3105.IAT_Practice1";;;;;;;;;;;;;;;;;;;;;;;;;;;;;;;;;;;;;;;;;;;;;;;;;;;;;;;;;;;;;;;;;;;;;;;;;;;;;;;;;;;;;;;;;;"1702";"2014-09-11 13:54:29.369";"FINISHED";"NEUTRAL";"success";"731";"2014-09-11 13:54:27.666";"IAT_Ppractice.csv";"2";"average"
"vermillionaire";"1986";;"Windows 7";"Rachel's Experiment (SCIAT)";"1.0";"1";"1";"1";"1";"1";"1";"2014-09-11 13:45:03.781";"2014-09-11 14:00:16.748";"1";"1";"1";"0";"1";"171";"170";"module.IAT_practice1.exec-3105.IAT_Practice1";;;;;;;;;;;;;;;;;;;;;;;;;;;;;;;;;;;;;;;;;;;;;;;;;;;;;;;;;;;;;;;;;;;;;;;;;;;;;;;;;;;;;;;;;;"1701";"2014-09-11 13:54:31.092";"FINISHED";"NEUTRAL";"success";"543";"2014-09-11 13:54:29.391";"IAT_Ppractice.csv";"2";"average"
"vermillionaire";"1986";;"Windows 7";"Rachel's Experiment (SCIAT)";"1.0";"1";"1";"1";"1";"1";"1";"2014-09-11 13:45:03.781";"2014-09-11 14:00:16.748";"1";"1";"1";"0";"1";"172";"171";"module.IAT_practice1.exec-3105.IAT_Practice1";;;;;;;;;;;;;;;;;;;;;;;;;;;;;;;;;;;;;;;;;;;;;;;;;;;;;;;;;;;;;;;;;;;;;;;;;;;;;;;;;;;;;;;;;;"1702";"2014-09-11 13:54:32.815";"FINISHED";"PLEASANT";"success";"645";"2014-09-11 13:54:31.113";"IAT_Ppractice.csv";"1";"delicious"
"vermillionaire";"1986";;"Windows 7";"Rachel's Experiment (SCIAT)";"1.0";"1";"1";"1";"1";"1";"1";"2014-09-11 13:45:03.781";"2014-09-11 14:00:16.748";"1";"1";"1";"0";"1";"173";"172";"module.IAT_practice1.exec-3105.IAT_Practice1";;;;;;;;;;;;;;;;;;;;;;;;;;;;;;;;;;;;;;;;;;;;;;;;;;;;;;;;;;;;;;;;;;;;;;;;;;;;;;;;;;;;;;;;;;"1701";"2014-09-11 13:54:34.553";"FINISHED";"NEUTRAL";"success";"891";"2014-09-11 13:54:32.851";"IAT_Ppractice.csv";"2";"moderate"
"vermillionaire";"1986";;"Windows 7";"Rachel's Experiment (SCIAT)";"1.0";"1";"1";"1";"1";"1";"1";"2014-09-11 13:45:03.781";"2014-09-11 14:00:16.748";"1";"1";"1";"0";"1";"174";"173";"module.IAT_practice1.exec-3105.IAT_Practice1";;;;;;;;;;;;;;;;;;;;;;;;;;;;;;;;;;;;;;;;;;;;;;;;;;;;;;;;;;;;;;;;;;;;;;;;;;;;;;;;;;;;;;;;;;"1702";"2014-09-11 13:54:36.279";"FINISHED";"PLEASANT";"success";"637";"2014-09-11 13:54:34.577";"IAT_Ppractice.csv";"1";"great"
"vermillionaire";"1986";;"Windows 7";"Rachel's Experiment (SCIAT)";"1.0";"1";"1";"1";"1";"1";"1";"2014-09-11 13:45:03.781";"2014-09-11 14:00:16.748";"1";"1";"1";"0";"1";"175";"174";"module.IAT_practice1.exec-3105.IAT_Practice1";;;;;;;;;;;;;;;;;;;;;;;;;;;;;;;;;;;;;;;;;;;;;;;;;;;;;;;;;;;;;;;;;;;;;;;;;;;;;;;;;;;;;;;;;;"1701";"2014-09-11 13:54:38.002";"FINISHED";"PLEASANT";"success";"673";"2014-09-11 13:54:36.300";"IAT_Ppractice.csv";"1";"tasty"
"vermillionaire";"1986";;"Windows 7";"Rachel's Experiment (SCIAT)";"1.0";"1";"1";"1";"1";"1";"1";"2014-09-11 13:45:03.781";"2014-09-11 14:00:16.748";"1";"1";"1";"0";"1";"176";"175";"module.IAT_practice1.exec-3105.IAT_Practice1";;;;;;;;;;;;;;;;;;;;;;;;;;;;;;;;;;;;;;;;;;;;;;;;;;;;;;;;;;;;;;;;;;;;;;;;;;;;;;;;;;;;;;;;;;"1701";"2014-09-11 13:54:39.727";"FINISHED";"NEUTRAL";"success";"692";"2014-09-11 13:54:38.025";"IAT_Ppractice.csv";"2";"ordinary"
"vermillionaire";"1986";;"Windows 7";"Rachel's Experiment (SCIAT)";"1.0";"1";"1";"1";"1";"1";"1";"2014-09-11 13:45:03.781";"2014-09-11 14:00:16.748";"1";"1";"1";"0";"1";"177";"176";"module.IAT_practice1.exec-3105.IAT_Practice1";;;;;;;;;;;;;;;;;;;;;;;;;;;;;;;;;;;;;;;;;;;;;;;;;;;;;;;;;;;;;;;;;;;;;;;;;;;;;;;;;;;;;;;;;;"1716";"2014-09-11 13:54:41.465";"FINISHED";"PLEASANT";"failure";"489";"2014-09-11 13:54:39.749";"IAT_Ppractice.csv";"2";"general"
"vermillionaire";"1986";;"Windows 7";"Rachel's Experiment (SCIAT)";"1.0";"1";"1";"1";"1";"1";"1";"2014-09-11 13:45:03.781";"2014-09-11 14:00:16.748";"1";"1";"1";"0";"1";"178";"177";"module.IAT_practice1.exec-3105.IAT_Practice1";;;;;;;;;;;;;;;;;;;;;;;;;;;;;;;;;;;;;;;;;;;;;;;;;;;;;;;;;;;;;;;;;;;;;;;;;;;;;;;;;;;;;;;;;;"1701";"2014-09-11 13:54:43.200";"FINISHED";"PLEASANT";"success";"724";"2014-09-11 13:54:41.498";"IAT_Ppractice.csv";"1";"delightful"
"vermillionaire";"1986";;"Windows 7";"Rachel's Experiment (SCIAT)";"1.0";"1";"1";"1";"1";"1";"1";"2014-09-11 13:45:03.781";"2014-09-11 14:00:16.748";"1";"1";"1";"0";"1";"179";"178";"module.IAT_practice1.exec-3105.IAT_Practice1";;;;;;;;;;;;;;;;;;;;;;;;;;;;;;;;;;;;;;;;;;;;;;;;;;;;;;;;;;;;;;;;;;;;;;;;;;;;;;;;;;;;;;;;;;"1701";"2014-09-11 13:54:44.926";"FINISHED";"NEUTRAL";"success";"710";"2014-09-11 13:54:43.224";"IAT_Ppractice.csv";"2";"moderate"
"vermillionaire";"1986";;"Windows 7";"Rachel's Experiment (SCIAT)";"1.0";"1";"1";"1";"1";"1";"1";"2014-09-11 13:45:03.781";"2014-09-11 14:00:16.748";"1";"1";"1";"0";"1";"180";"179";"module.IAT_practice1.exec-3105.IAT_Practice1";;;;;;;;;;;;;;;;;;;;;;;;;;;;;;;;;;;;;;;;;;;;;;;;;;;;;;;;;;;;;;;;;;;;;;;;;;;;;;;;;;;;;;;;;;"1701";"2014-09-11 13:54:46.649";"FINISHED";"NEUTRAL";"success";"747";"2014-09-11 13:54:44.947";"IAT_Ppractice.csv";"2";"undefined"
"vermillionaire";"1986";;"Windows 7";"Rachel's Experiment (SCIAT)";"1.0";"1";"1";"1";"1";"1";"1";"2014-09-11 13:45:03.781";"2014-09-11 14:00:16.748";"1";"1";"1";"0";"1";"181";"180";"module.IAT_practice1.exec-3105.IAT_Practice1";;;;;;;;;;;;;;;;;;;;;;;;;;;;;;;;;;;;;;;;;;;;;;;;;;;;;;;;;;;;;;;;;;;;;;;;;;;;;;;;;;;;;;;;;;"1701";"2014-09-11 13:54:48.375";"FINISHED";"PLEASANT";"success";"637";"2014-09-11 13:54:46.672";"IAT_Ppractice.csv";"1";"outstanding"
"vermillionaire";"1986";;"Windows 7";"Rachel's Experiment (SCIAT)";"1.0";"1";"1";"1";"1";"1";"1";"2014-09-11 13:45:03.781";"2014-09-11 14:00:16.748";"1";"1";"1";"0";"1";"182";"181";"module.IAT_practice1.exec-3105.IAT_Practice1";;;;;;;;;;;;;;;;;;;;;;;;;;;;;;;;;;;;;;;;;;;;;;;;;;;;;;;;;;;;;;;;;;;;;;;;;;;;;;;;;;;;;;;;;;"1701";"2014-09-11 13:54:50.101";"FINISHED";"PLEASANT";"success";"670";"2014-09-11 13:54:48.399";"IAT_Ppractice.csv";"1";"heavenly"
"vermillionaire";"1986";;"Windows 7";"Rachel's Experiment (SCIAT)";"1.0";"1";"1";"1";"1";"1";"1";"2014-09-11 13:45:03.781";"2014-09-11 14:00:16.748";"1";"1";"1";"0";"1";"183";"182";"module.IAT_practice1.exec-3105.IAT_Practice1";;;;;;;;;;;;;;;;;;;;;;;;;;;;;;;;;;;;;;;;;;;;;;;;;;;;;;;;;;;;;;;;;;;;;;;;;;;;;;;;;;;;;;;;;;"1701";"2014-09-11 13:54:51.827";"FINISHED";"PLEASANT";"success";"561";"2014-09-11 13:54:50.125";"IAT_Ppractice.csv";"1";"delightful"
"vermillionaire";"1986";;"Windows 7";"Rachel's Experiment (SCIAT)";"1.0";"1";"1";"1";"1";"1";"1";"2014-09-11 13:45:03.781";"2014-09-11 14:00:16.748";"1";"1";"1";"0";"1";"184";"183";"module.IAT_Block1.exec-5410.IAT_block1";;;;;;;;;;;;;;;;;;;;;;;;;;;;;;;;;;;;;;;;;;;;;;;;;;;;;;;;;;;;;;;;;;;;;;"1702";"2014-09-11 13:55:08.637";"FINISHED";"NEUTRAL";"success";"855";"2014-09-11 13:55:06.935";"IAT_PN.csv";"2";"undefined";;;;;;;;;;;;;;;;;;;;
"vermillionaire";"1986";;"Windows 7";"Rachel's Experiment (SCIAT)";"1.0";"1";"1";"1";"1";"1";"1";"2014-09-11 13:45:03.781";"2014-09-11 14:00:16.748";"1";"1";"1";"0";"1";"185";"184";"module.IAT_Block1.exec-5410.IAT_block1";;;;;;;;;;;;;;;;;;;;;;;;;;;;;;;;;;;;;;;;;;;;;;;;;;;;;;;;;;;;;;;;;;;;;;"1701";"2014-09-11 13:55:10.363";"FINISHED";"NEUTRAL";"success";"793";"2014-09-11 13:55:08.661";"IAT_PN.csv";"2";"adequate";;;;;;;;;;;;;;;;;;;;
"vermillionaire";"1986";;"Windows 7";"Rachel's Experiment (SCIAT)";"1.0";"1";"1";"1";"1";"1";"1";"2014-09-11 13:45:03.781";"2014-09-11 14:00:16.748";"1";"1";"1";"0";"1";"186";"185";"module.IAT_Block1.exec-5410.IAT_block1";;;;;;;;;;;;;;;;;;;;;;;;;;;;;;;;;;;;;;;;;;;;;;;;;;;;;;;;;;;;;;;;;;;;;;"1700";"2014-09-11 13:55:12.083";"FINISHED";"NEUTRAL";"failure";"1119";"2014-09-11 13:55:10.382";"IAT_PN.csv";"1";"delightful";;;;;;;;;;;;;;;;;;;;
"vermillionaire";"1986";;"Windows 7";"Rachel's Experiment (SCIAT)";"1.0";"1";"1";"1";"1";"1";"1";"2014-09-11 13:45:03.781";"2014-09-11 14:00:16.748";"1";"1";"1";"0";"1";"187";"186";"module.IAT_Block1.exec-5410.IAT_block1";;;;;;;;;;;;;;;;;;;;;;;;;;;;;;;;;;;;;;;;;;;;;;;;;;;;;;;;;;;;;;;;;;;;;;"3016";"2014-09-11 13:55:15.132";"FINISHED";"NONE";"failure";"0";"2014-09-11 13:55:12.116";"IAT_PN.csv";"2";"A1";;;;;;;;;;;;;;;;;;;;
"vermillionaire";"1986";;"Windows 7";"Rachel's Experiment (SCIAT)";"1.0";"1";"1";"1";"1";"1";"1";"2014-09-11 13:45:03.781";"2014-09-11 14:00:16.748";"1";"1";"1";"0";"1";"188";"187";"module.IAT_Block1.exec-5410.IAT_block1";;;;;;;;;;;;;;;;;;;;;;;;;;;;;;;;;;;;;;;;;;;;;;;;;;;;;;;;;;;;;;;;;;;;;;"3001";"2014-09-11 13:55:18.154";"FINISHED";"NONE";"failure";"0";"2014-09-11 13:55:15.152";"IAT_PN.csv";"2";"moderate";;;;;;;;;;;;;;;;;;;;
"vermillionaire";"1986";;"Windows 7";"Rachel's Experiment (SCIAT)";"1.0";"1";"1";"1";"1";"1";"1";"2014-09-11 13:45:03.781";"2014-09-11 14:00:16.748";"1";"1";"1";"0";"1";"189";"188";"module.IAT_Block1.exec-5410.IAT_block1";;;;;;;;;;;;;;;;;;;;;;;;;;;;;;;;;;;;;;;;;;;;;;;;;;;;;;;;;;;;;;;;;;;;;;"1701";"2014-09-11 13:55:19.884";"FINISHED";"NEUTRAL";"success";"984";"2014-09-11 13:55:18.182";"IAT_PN.csv";"2";"A3";;;;;;;;;;;;;;;;;;;;
"vermillionaire";"1986";;"Windows 7";"Rachel's Experiment (SCIAT)";"1.0";"1";"1";"1";"1";"1";"1";"2014-09-11 13:45:03.781";"2014-09-11 14:00:16.748";"1";"1";"1";"0";"1";"190";"189";"module.IAT_Block1.exec-5410.IAT_block1";;;;;;;;;;;;;;;;;;;;;;;;;;;;;;;;;;;;;;;;;;;;;;;;;;;;;;;;;;;;;;;;;;;;;;"1701";"2014-09-11 13:55:21.619";"FINISHED";"NEUTRAL";"success";"577";"2014-09-11 13:55:19.917";"IAT_PN.csv";"2";"A5";;;;;;;;;;;;;;;;;;;;
"vermillionaire";"1986";;"Windows 7";"Rachel's Experiment (SCIAT)";"1.0";"1";"1";"1";"1";"1";"1";"2014-09-11 13:45:03.781";"2014-09-11 14:00:16.748";"1";"1";"1";"0";"1";"191";"190";"module.IAT_Block1.exec-5410.IAT_block1";;;;;;;;;;;;;;;;;;;;;;;;;;;;;;;;;;;;;;;;;;;;;;;;;;;;;;;;;;;;;;;;;;;;;;"1701";"2014-09-11 13:55:23.343";"FINISHED";"NEUTRAL";"success";"629";"2014-09-11 13:55:21.641";"IAT_PN.csv";"2";"A3";;;;;;;;;;;;;;;;;;;;
"vermillionaire";"1986";;"Windows 7";"Rachel's Experiment (SCIAT)";"1.0";"1";"1";"1";"1";"1";"1";"2014-09-11 13:45:03.781";"2014-09-11 14:00:16.748";"1";"1";"1";"0";"1";"192";"191";"module.IAT_Block1.exec-5410.IAT_block1";;;;;;;;;;;;;;;;;;;;;;;;;;;;;;;;;;;;;;;;;;;;;;;;;;;;;;;;;;;;;;;;;;;;;;"1700";"2014-09-11 13:55:25.067";"FINISHED";"NEUTRAL";"success";"504";"2014-09-11 13:55:23.366";"IAT_PN.csv";"2";"A3";;;;;;;;;;;;;;;;;;;;
"vermillionaire";"1986";;"Windows 7";"Rachel's Experiment (SCIAT)";"1.0";"1";"1";"1";"1";"1";"1";"2014-09-11 13:45:03.781";"2014-09-11 14:00:16.748";"1";"1";"1";"0";"1";"193";"192";"module.IAT_Block1.exec-5410.IAT_block1";;;;;;;;;;;;;;;;;;;;;;;;;;;;;;;;;;;;;;;;;;;;;;;;;;;;;;;;;;;;;;;;;;;;;;"1701";"2014-09-11 13:55:26.786";"FINISHED";"NEUTRAL";"success";"1186";"2014-09-11 13:55:25.084";"IAT_PN.csv";"2";"ordinary";;;;;;;;;;;;;;;;;;;;
"vermillionaire";"1986";;"Windows 7";"Rachel's Experiment (SCIAT)";"1.0";"1";"1";"1";"1";"1";"1";"2014-09-11 13:45:03.781";"2014-09-11 14:00:16.748";"1";"1";"1";"0";"1";"194";"193";"module.IAT_Block1.exec-5410.IAT_block1";;;;;;;;;;;;;;;;;;;;;;;;;;;;;;;;;;;;;;;;;;;;;;;;;;;;;;;;;;;;;;;;;;;;;;"1701";"2014-09-11 13:55:28.519";"FINISHED";"NEUTRAL";"success";"813";"2014-09-11 13:55:26.818";"IAT_PN.csv";"2";"A4";;;;;;;;;;;;;;;;;;;;
"vermillionaire";"1986";;"Windows 7";"Rachel's Experiment (SCIAT)";"1.0";"1";"1";"1";"1";"1";"1";"2014-09-11 13:45:03.781";"2014-09-11 14:00:16.748";"1";"1";"1";"0";"1";"195";"194";"module.IAT_Block1.exec-5410.IAT_block1";;;;;;;;;;;;;;;;;;;;;;;;;;;;;;;;;;;;;;;;;;;;;;;;;;;;;;;;;;;;;;;;;;;;;;"1700";"2014-09-11 13:55:30.243";"FINISHED";"PLEASANT";"success";"945";"2014-09-11 13:55:28.541";"IAT_PN.csv";"1";"great";;;;;;;;;;;;;;;;;;;;
"vermillionaire";"1986";;"Windows 7";"Rachel's Experiment (SCIAT)";"1.0";"1";"1";"1";"1";"1";"1";"2014-09-11 13:45:03.781";"2014-09-11 14:00:16.748";"1";"1";"1";"0";"1";"196";"195";"module.IAT_Block1.exec-5410.IAT_block1";;;;;;;;;;;;;;;;;;;;;;;;;;;;;;;;;;;;;;;;;;;;;;;;;;;;;;;;;;;;;;;;;;;;;;"1700";"2014-09-11 13:55:31.966";"FINISHED";"PLEASANT";"success";"581";"2014-09-11 13:55:30.265";"IAT_PN.csv";"1";"heavenly";;;;;;;;;;;;;;;;;;;;
"vermillionaire";"1986";;"Windows 7";"Rachel's Experiment (SCIAT)";"1.0";"1";"1";"1";"1";"1";"1";"2014-09-11 13:45:03.781";"2014-09-11 14:00:16.748";"1";"1";"1";"0";"1";"197";"196";"module.IAT_Block1.exec-5410.IAT_block1";;;;;;;;;;;;;;;;;;;;;;;;;;;;;;;;;;;;;;;;;;;;;;;;;;;;;;;;;;;;;;;;;;;;;;"1700";"2014-09-11 13:55:33.691";"FINISHED";"PLEASANT";"failure";"616";"2014-09-11 13:55:31.990";"IAT_PN.csv";"2";"moderate";;;;;;;;;;;;;;;;;;;;
"vermillionaire";"1986";;"Windows 7";"Rachel's Experiment (SCIAT)";"1.0";"1";"1";"1";"1";"1";"1";"2014-09-11 13:45:03.781";"2014-09-11 14:00:16.748";"1";"1";"1";"0";"1";"198";"197";"module.IAT_Block1.exec-5410.IAT_block1";;;;;;;;;;;;;;;;;;;;;;;;;;;;;;;;;;;;;;;;;;;;;;;;;;;;;;;;;;;;;;;;;;;;;;"1701";"2014-09-11 13:55:35.416";"FINISHED";"PLEASANT";"success";"700";"2014-09-11 13:55:33.714";"IAT_PN.csv";"1";"outstanding";;;;;;;;;;;;;;;;;;;;
"vermillionaire";"1986";;"Windows 7";"Rachel's Experiment (SCIAT)";"1.0";"1";"1";"1";"1";"1";"1";"2014-09-11 13:45:03.781";"2014-09-11 14:00:16.748";"1";"1";"1";"0";"1";"199";"198";"module.IAT_Block1.exec-5410.IAT_block1";;;;;;;;;;;;;;;;;;;;;;;;;;;;;;;;;;;;;;;;;;;;;;;;;;;;;;;;;;;;;;;;;;;;;;"1700";"2014-09-11 13:55:37.135";"FINISHED";"PLEASANT";"success";"708";"2014-09-11 13:55:35.434";"IAT_PN.csv";"1";"tasty";;;;;;;;;;;;;;;;;;;;
"vermillionaire";"1986";;"Windows 7";"Rachel's Experiment (SCIAT)";"1.0";"1";"1";"1";"1";"1";"1";"2014-09-11 13:45:03.781";"2014-09-11 14:00:16.748";"1";"1";"1";"0";"1";"200";"199";"module.IAT_Block1.exec-5410.IAT_block1";;;;;;;;;;;;;;;;;;;;;;;;;;;;;;;;;;;;;;;;;;;;;;;;;;;;;;;;;;;;;;;;;;;;;;"1701";"2014-09-11 13:55:38.860";"FINISHED";"NEUTRAL";"success";"600";"2014-09-11 13:55:37.159";"IAT_PN.csv";"2";"A4";;;;;;;;;;;;;;;;;;;;
"vermillionaire";"1986";;"Windows 7";"Rachel's Experiment (SCIAT)";"1.0";"1";"1";"1";"1";"1";"1";"2014-09-11 13:45:03.781";"2014-09-11 14:00:16.748";"1";"1";"1";"0";"1";"201";"200";"module.IAT_Block1.exec-5410.IAT_block1";;;;;;;;;;;;;;;;;;;;;;;;;;;;;;;;;;;;;;;;;;;;;;;;;;;;;;;;;;;;;;;;;;;;;;"1700";"2014-09-11 13:55:40.582";"FINISHED";"PLEASANT";"success";"910";"2014-09-11 13:55:38.880";"IAT_PN.csv";"1";"delicious";;;;;;;;;;;;;;;;;;;;
"vermillionaire";"1986";;"Windows 7";"Rachel's Experiment (SCIAT)";"1.0";"1";"1";"1";"1";"1";"1";"2014-09-11 13:45:03.781";"2014-09-11 14:00:16.748";"1";"1";"1";"0";"1";"202";"201";"module.IAT_Block1.exec-5410.IAT_block1";;;;;;;;;;;;;;;;;;;;;;;;;;;;;;;;;;;;;;;;;;;;;;;;;;;;;;;;;;;;;;;;;;;;;;"1700";"2014-09-11 13:55:42.316";"FINISHED";"NEUTRAL";"success";"695";"2014-09-11 13:55:40.615";"IAT_PN.csv";"2";"A2";;;;;;;;;;;;;;;;;;;;
"vermillionaire";"1986";;"Windows 7";"Rachel's Experiment (SCIAT)";"1.0";"1";"1";"1";"1";"1";"1";"2014-09-11 13:45:03.781";"2014-09-11 14:00:16.748";"1";"1";"1";"0";"1";"203";"202";"module.IAT_Block1.exec-5410.IAT_block1";;;;;;;;;;;;;;;;;;;;;;;;;;;;;;;;;;;;;;;;;;;;;;;;;;;;;;;;;;;;;;;;;;;;;;"1702";"2014-09-11 13:55:44.037";"FINISHED";"NEUTRAL";"success";"608";"2014-09-11 13:55:42.334";"IAT_PN.csv";"2";"A4";;;;;;;;;;;;;;;;;;;;
"vermillionaire";"1986";;"Windows 7";"Rachel's Experiment (SCIAT)";"1.0";"1";"1";"1";"1";"1";"1";"2014-09-11 13:45:03.781";"2014-09-11 14:00:16.748";"1";"1";"1";"0";"1";"204";"203";"module.IAT_Block1.exec-5410.IAT_block1";;;;;;;;;;;;;;;;;;;;;;;;;;;;;;;;;;;;;;;;;;;;;;;;;;;;;;;;;;;;;;;;;;;;;;"1701";"2014-09-11 13:55:45.771";"FINISHED";"PLEASANT";"success";"649";"2014-09-11 13:55:44.070";"IAT_PN.csv";"1";"delicious";;;;;;;;;;;;;;;;;;;;
"vermillionaire";"1986";;"Windows 7";"Rachel's Experiment (SCIAT)";"1.0";"1";"1";"1";"1";"1";"1";"2014-09-11 13:45:03.781";"2014-09-11 14:00:16.748";"1";"1";"1";"0";"1";"205";"204";"module.IAT_Block1.exec-5410.IAT_block1";;;;;;;;;;;;;;;;;;;;;;;;;;;;;;;;;;;;;;;;;;;;;;;;;;;;;;;;;;;;;;;;;;;;;;"1701";"2014-09-11 13:55:47.496";"FINISHED";"NEUTRAL";"success";"1052";"2014-09-11 13:55:45.794";"IAT_PN.csv";"2";"A1";;;;;;;;;;;;;;;;;;;;
"vermillionaire";"1986";;"Windows 7";"Rachel's Experiment (SCIAT)";"1.0";"1";"1";"1";"1";"1";"1";"2014-09-11 13:45:03.781";"2014-09-11 14:00:16.748";"1";"1";"1";"0";"1";"206";"205";"module.IAT_Block1.exec-5410.IAT_block1";;;;;;;;;;;;;;;;;;;;;;;;;;;;;;;;;;;;;;;;;;;;;;;;;;;;;;;;;;;;;;;;;;;;;;"1701";"2014-09-11 13:55:49.219";"FINISHED";"NEUTRAL";"success";"928";"2014-09-11 13:55:47.518";"IAT_PN.csv";"2";"A5";;;;;;;;;;;;;;;;;;;;
"vermillionaire";"1986";;"Windows 7";"Rachel's Experiment (SCIAT)";"1.0";"1";"1";"1";"1";"1";"1";"2014-09-11 13:45:03.781";"2014-09-11 14:00:16.748";"1";"1";"1";"0";"1";"207";"206";"module.IAT_Block1.exec-5410.IAT_block1";;;;;;;;;;;;;;;;;;;;;;;;;;;;;;;;;;;;;;;;;;;;;;;;;;;;;;;;;;;;;;;;;;;;;;"1700";"2014-09-11 13:55:50.943";"FINISHED";"PLEASANT";"success";"1012";"2014-09-11 13:55:49.242";"IAT_PN.csv";"1";"outstanding";;;;;;;;;;;;;;;;;;;;
"vermillionaire";"1986";;"Windows 7";"Rachel's Experiment (SCIAT)";"1.0";"1";"1";"1";"1";"1";"1";"2014-09-11 13:45:03.781";"2014-09-11 14:00:16.748";"1";"1";"1";"0";"1";"208";"207";"module.IAT_Block1.exec-5410.IAT_block1";;;;;;;;;;;;;;;;;;;;;;;;;;;;;;;;;;;;;;;;;;;;;;;;;;;;;;;;;;;;;;;;;;;;;;"1700";"2014-09-11 13:55:52.666";"FINISHED";"NEUTRAL";"success";"809";"2014-09-11 13:55:50.965";"IAT_PN.csv";"2";"average";;;;;;;;;;;;;;;;;;;;
"vermillionaire";"1986";;"Windows 7";"Rachel's Experiment (SCIAT)";"1.0";"1";"1";"1";"1";"1";"1";"2014-09-11 13:45:03.781";"2014-09-11 14:00:16.748";"1";"1";"1";"0";"1";"209";"208";"module.IAT_Block1.exec-5410.IAT_block1";;;;;;;;;;;;;;;;;;;;;;;;;;;;;;;;;;;;;;;;;;;;;;;;;;;;;;;;;;;;;;;;;;;;;;"1700";"2014-09-11 13:55:54.391";"FINISHED";"NEUTRAL";"failure";"844";"2014-09-11 13:55:52.690";"IAT_PN.csv";"1";"outstanding";;;;;;;;;;;;;;;;;;;;
"vermillionaire";"1986";;"Windows 7";"Rachel's Experiment (SCIAT)";"1.0";"1";"1";"1";"1";"1";"1";"2014-09-11 13:45:03.781";"2014-09-11 14:00:16.748";"1";"1";"1";"0";"1";"210";"209";"module.IAT_Block1.exec-5410.IAT_block1";;;;;;;;;;;;;;;;;;;;;;;;;;;;;;;;;;;;;;;;;;;;;;;;;;;;;;;;;;;;;;;;;;;;;;"1702";"2014-09-11 13:55:56.117";"FINISHED";"NEUTRAL";"success";"960";"2014-09-11 13:55:54.415";"IAT_PN.csv";"2";"general";;;;;;;;;;;;;;;;;;;;
"vermillionaire";"1986";;"Windows 7";"Rachel's Experiment (SCIAT)";"1.0";"1";"1";"1";"1";"1";"1";"2014-09-11 13:45:03.781";"2014-09-11 14:00:16.748";"1";"1";"1";"0";"1";"211";"210";"module.IAT_Block1.exec-5410.IAT_block1";;;;;;;;;;;;;;;;;;;;;;;;;;;;;;;;;;;;;;;;;;;;;;;;;;;;;;;;;;;;;;;;;;;;;;"1700";"2014-09-11 13:55:57.835";"FINISHED";"PLEASANT";"success";"888";"2014-09-11 13:55:56.134";"IAT_PN.csv";"1";"delightful";;;;;;;;;;;;;;;;;;;;
"vermillionaire";"1986";;"Windows 7";"Rachel's Experiment (SCIAT)";"1.0";"1";"1";"1";"1";"1";"1";"2014-09-11 13:45:03.781";"2014-09-11 14:00:16.748";"1";"1";"1";"0";"1";"212";"211";"module.IAT_Block1.exec-5410.IAT_block1";;;;;;;;;;;;;;;;;;;;;;;;;;;;;;;;;;;;;;;;;;;;;;;;;;;;;;;;;;;;;;;;;;;;;;"1701";"2014-09-11 13:55:59.559";"FINISHED";"NEUTRAL";"failure";"1053";"2014-09-11 13:55:57.858";"IAT_PN.csv";"1";"delightful";;;;;;;;;;;;;;;;;;;;
"vermillionaire";"1986";;"Windows 7";"Rachel's Experiment (SCIAT)";"1.0";"1";"1";"1";"1";"1";"1";"2014-09-11 13:45:03.781";"2014-09-11 14:00:16.748";"1";"1";"1";"0";"1";"213";"212";"module.IAT_Block1.exec-5410.IAT_block1";;;;;;;;;;;;;;;;;;;;;;;;;;;;;;;;;;;;;;;;;;;;;;;;;;;;;;;;;;;;;;;;;;;;;;"1701";"2014-09-11 13:56:01.282";"FINISHED";"NEUTRAL";"success";"722";"2014-09-11 13:55:59.581";"IAT_PN.csv";"2";"undefined";;;;;;;;;;;;;;;;;;;;
"vermillionaire";"1986";;"Windows 7";"Rachel's Experiment (SCIAT)";"1.0";"1";"1";"1";"1";"1";"1";"2014-09-11 13:45:03.781";"2014-09-11 14:00:16.748";"1";"1";"1";"0";"1";"214";"213";"module.IAT_Block1.exec-5410.IAT_block1";;;;;;;;;;;;;;;;;;;;;;;;;;;;;;;;;;;;;;;;;;;;;;;;;;;;;;;;;;;;;;;;;;;;;;"1700";"2014-09-11 13:56:03.005";"FINISHED";"NEUTRAL";"success";"582";"2014-09-11 13:56:01.304";"IAT_PN.csv";"2";"A3";;;;;;;;;;;;;;;;;;;;
"vermillionaire";"1986";;"Windows 7";"Rachel's Experiment (SCIAT)";"1.0";"1";"1";"1";"1";"1";"1";"2014-09-11 13:45:03.781";"2014-09-11 14:00:16.748";"1";"1";"1";"0";"1";"215";"214";"module.IAT_Block1.exec-5410.IAT_block1";;;;;;;;;;;;;;;;;;;;;;;;;;;;;;;;;;;;;;;;;;;;;;;;;;;;;;;;;;;;;;;;;;;;;;"1700";"2014-09-11 13:56:04.728";"FINISHED";"PLEASANT";"success";"715";"2014-09-11 13:56:03.027";"IAT_PN.csv";"1";"heavenly";;;;;;;;;;;;;;;;;;;;
"vermillionaire";"1986";;"Windows 7";"Rachel's Experiment (SCIAT)";"1.0";"1";"1";"1";"1";"1";"1";"2014-09-11 13:45:03.781";"2014-09-11 14:00:16.748";"1";"1";"1";"0";"1";"216";"215";"module.IAT_Block1.exec-5410.IAT_block1";;;;;;;;;;;;;;;;;;;;;;;;;;;;;;;;;;;;;;;;;;;;;;;;;;;;;;;;;;;;;;;;;;;;;;"1700";"2014-09-11 13:56:06.447";"FINISHED";"NEUTRAL";"success";"725";"2014-09-11 13:56:04.746";"IAT_PN.csv";"2";"A5";;;;;;;;;;;;;;;;;;;;
"vermillionaire";"1986";;"Windows 7";"Rachel's Experiment (SCIAT)";"1.0";"1";"1";"1";"1";"1";"1";"2014-09-11 13:45:03.781";"2014-09-11 14:00:16.748";"1";"1";"1";"0";"1";"217";"216";"module.IAT_Block1.exec-5410.IAT_block1";;;;;;;;;;;;;;;;;;;;;;;;;;;;;;;;;;;;;;;;;;;;;;;;;;;;;;;;;;;;;;;;;;;;;;"1701";"2014-09-11 13:56:08.170";"FINISHED";"PLEASANT";"success";"1034";"2014-09-11 13:56:06.468";"IAT_PN.csv";"1";"great";;;;;;;;;;;;;;;;;;;;
"vermillionaire";"1986";;"Windows 7";"Rachel's Experiment (SCIAT)";"1.0";"1";"1";"1";"1";"1";"1";"2014-09-11 13:45:03.781";"2014-09-11 14:00:16.748";"1";"1";"1";"0";"1";"218";"217";"module.IAT_Block1.exec-5410.IAT_block1";;;;;;;;;;;;;;;;;;;;;;;;;;;;;;;;;;;;;;;;;;;;;;;;;;;;;;;;;;;;;;;;;;;;;;"1700";"2014-09-11 13:56:09.892";"FINISHED";"NEUTRAL";"success";"639";"2014-09-11 13:56:08.191";"IAT_PN.csv";"2";"ordinary";;;;;;;;;;;;;;;;;;;;
"vermillionaire";"1986";;"Windows 7";"Rachel's Experiment (SCIAT)";"1.0";"1";"1";"1";"1";"1";"1";"2014-09-11 13:45:03.781";"2014-09-11 14:00:16.748";"1";"1";"1";"0";"1";"219";"218";"module.IAT_Block1.exec-5410.IAT_block1";;;;;;;;;;;;;;;;;;;;;;;;;;;;;;;;;;;;;;;;;;;;;;;;;;;;;;;;;;;;;;;;;;;;;;"1701";"2014-09-11 13:56:11.617";"FINISHED";"PLEASANT";"success";"580";"2014-09-11 13:56:09.915";"IAT_PN.csv";"1";"delicious";;;;;;;;;;;;;;;;;;;;
"vermillionaire";"1986";;"Windows 7";"Rachel's Experiment (SCIAT)";"1.0";"1";"1";"1";"1";"1";"1";"2014-09-11 13:45:03.781";"2014-09-11 14:00:16.748";"1";"1";"1";"0";"1";"220";"219";"module.IAT_Block1.exec-5410.IAT_block1";;;;;;;;;;;;;;;;;;;;;;;;;;;;;;;;;;;;;;;;;;;;;;;;;;;;;;;;;;;;;;;;;;;;;;"1701";"2014-09-11 13:56:13.340";"FINISHED";"NEUTRAL";"failure";"424";"2014-09-11 13:56:11.639";"IAT_PN.csv";"1";"outstanding";;;;;;;;;;;;;;;;;;;;
"vermillionaire";"1986";;"Windows 7";"Rachel's Experiment (SCIAT)";"1.0";"1";"1";"1";"1";"1";"1";"2014-09-11 13:45:03.781";"2014-09-11 14:00:16.748";"1";"1";"1";"0";"1";"221";"220";"module.IAT_Block1.exec-5410.IAT_block1";;;;;;;;;;;;;;;;;;;;;;;;;;;;;;;;;;;;;;;;;;;;;;;;;;;;;;;;;;;;;;;;;;;;;;"1701";"2014-09-11 13:56:15.065";"FINISHED";"NEUTRAL";"success";"1260";"2014-09-11 13:56:13.363";"IAT_PN.csv";"2";"average";;;;;;;;;;;;;;;;;;;;
"vermillionaire";"1986";;"Windows 7";"Rachel's Experiment (SCIAT)";"1.0";"1";"1";"1";"1";"1";"1";"2014-09-11 13:45:03.781";"2014-09-11 14:00:16.748";"1";"1";"1";"0";"1";"222";"221";"module.IAT_Block1.exec-5410.IAT_block1";;;;;;;;;;;;;;;;;;;;;;;;;;;;;;;;;;;;;;;;;;;;;;;;;;;;;;;;;;;;;;;;;;;;;;"1700";"2014-09-11 13:56:16.788";"FINISHED";"PLEASANT";"success";"640";"2014-09-11 13:56:15.086";"IAT_PN.csv";"1";"tasty";;;;;;;;;;;;;;;;;;;;
