"user.name";"user.yearOfBirth";"user.sex";"user.osName";"module.name";"module.version";"module.online.subject.code";"module.online.study.id";"module.online.module.nr";"module.online.group.nr";"session.id";"session.index";"session.startTime";"session.endTime";"session.completed";"session.node-7982.blockOrder";"session.node-7982.IATorder";"session.node-7982.keyOrder";"session.node-9207.conditionType";"trial.id";"trial.index";"trial.name";"trial.GoNoGo1.durationTime";"trial.GoNoGo1.endTime";"trial.GoNoGo1.Error Type";"trial.GoNoGo1.icon";"trial.GoNoGo1.location";"trial.GoNoGo1.outcome";"trial.GoNoGo1.response";"trial.GoNoGo1.result";"trial.GoNoGo1.RT";"trial.GoNoGo1.signal";"trial.GoNoGo1.startTime";"trial.GoNoGo1.stimulus type";"trial.GoNoGo2.durationTime";"trial.GoNoGo2.endTime";"trial.GoNoGo2.Error Type";"trial.GoNoGo2.icon";"trial.GoNoGo2.location";"trial.GoNoGo2.outcome";"trial.GoNoGo2.response";"trial.GoNoGo2.result";"trial.GoNoGo2.RT";"trial.GoNoGo2.signal";"trial.GoNoGo2.startTime";"trial.GoNoGo2.stimulus type";"trial.GoNoGo3.durationTime";"trial.GoNoGo3.endTime";"trial.GoNoGo3.Error Type";"trial.GoNoGo3.icon";"trial.GoNoGo3.location";"trial.GoNoGo3.outcome";"trial.GoNoGo3.response";"trial.GoNoGo3.result";"trial.GoNoGo3.RT";"trial.GoNoGo3.signal";"trial.GoNoGo3.startTime";"trial.GoNoGo3.stimulus type";"trial.GoNoGo4.durationTime";"trial.GoNoGo4.endTime";"trial.GoNoGo4.Error Type";"trial.GoNoGo4.icon";"trial.GoNoGo4.location";"trial.GoNoGo4.outcome";"trial.GoNoGo4.response";"trial.GoNoGo4.result";"trial.GoNoGo4.RT";"trial.GoNoGo4.signal";"trial.GoNoGo4.startTime";"trial.GoNoGo4.stimulus type";"trial.GoNoGo_Practice.durationTime";"trial.GoNoGo_Practice.endTime";"trial.GoNoGo_Practice.icon";"trial.GoNoGo_Practice.location";"trial.GoNoGo_Practice.outcome";"trial.GoNoGo_Practice.response";"trial.GoNoGo_Practice.result";"trial.GoNoGo_Practice.RT";"trial.GoNoGo_Practice.signal";"trial.GoNoGo_Practice.startTime";"trial.GoNoGo_Practice.stimulus type";"trial.GoNoGo_Tutorial.durationTime";"trial.GoNoGo_Tutorial.endTime";"trial.GoNoGo_Tutorial.icon";"trial.GoNoGo_Tutorial.location";"trial.GoNoGo_Tutorial.outcome";"trial.GoNoGo_Tutorial.response";"trial.GoNoGo_Tutorial.result";"trial.GoNoGo_Tutorial.RT";"trial.GoNoGo_Tutorial.signal";"trial.GoNoGo_Tutorial.startTime";"trial.IAT_block1.durationTime";"trial.IAT_block1.endTime";"trial.IAT_block1.outcome";"trial.IAT_block1.response";"trial.IAT_block1.result";"trial.IAT_block1.RT";"trial.IAT_block1.startTime";"trial.IAT_block1.Stimfile";"trial.IAT_block1.stimType";"trial.IAT_block1.word";"trial.IAT_Practice1.durationTime";"trial.IAT_Practice1.endTime";"trial.IAT_Practice1.outcome";"trial.IAT_Practice1.response";"trial.IAT_Practice1.result";"trial.IAT_Practice1.RT";"trial.IAT_Practice1.startTime";"trial.IAT_Practice1.Stimfile";"trial.IAT_Practice1.stimType";"trial.IAT_Practice1.word"
"FB12AS";;;"Windows 7";"Rachel's Experiment (SCIAT)";"1.0";"1";"1";"1";"1";"1";"1";"2014-07-21 11:18:25.021";"2014-07-21 11:30:25.999";"1";"0";"1";"0";"0";"1";"0";"module.GoNoGotutorial.exec-2058.GoNoGo_Tutorial";;;;;;;;;;;;;;;;;;;;;;;;;;;;;;;;;;;;;;;;;;;;;;;;;;;;;;;;;;;;"4001";"2014-07-21 11:19:14.094";"leftResponse";"0";"FINISHED";"LEFT";"success";"1375";"0";"2014-07-21 11:19:10.093";;;;;;;;;;;;;;;;;;;;
"FB12AS";;;"Windows 7";"Rachel's Experiment (SCIAT)";"1.0";"1";"1";"1";"1";"1";"1";"2014-07-21 11:18:25.021";"2014-07-21 11:30:25.999";"1";"0";"1";"0";"0";"2";"1";"module.GoNoGotutorial.exec-2058.GoNoGo_Tutorial";;;;;;;;;;;;;;;;;;;;;;;;;;;;;;;;;;;;;;;;;;;;;;;;;;;;;;;;;;;;"4000";"2014-07-21 11:19:19.474";"rightResponse";"1";"FINISHED";"RIGHT";"success";"1190";"0";"2014-07-21 11:19:15.474";;;;;;;;;;;;;;;;;;;;
"FB12AS";;;"Windows 7";"Rachel's Experiment (SCIAT)";"1.0";"1";"1";"1";"1";"1";"1";"2014-07-21 11:18:25.021";"2014-07-21 11:30:25.999";"1";"0";"1";"0";"0";"3";"2";"module.GoNoGotutorial.exec-2058.GoNoGo_Tutorial";;;;;;;;;;;;;;;;;;;;;;;;;;;;;;;;;;;;;;;;;;;;;;;;;;;;;;;;;;;;"4000";"2014-07-21 11:19:24.782";"quickResponse";"0";"FINISHED";"LEFT";"success";"1023";"0";"2014-07-21 11:19:20.782";;;;;;;;;;;;;;;;;;;;
"FB12AS";;;"Windows 7";"Rachel's Experiment (SCIAT)";"1.0";"1";"1";"1";"1";"1";"1";"2014-07-21 11:18:25.021";"2014-07-21 11:30:25.999";"1";"0";"1";"0";"0";"4";"3";"module.GoNoGopractice.exec-8467.GoNoGo_Practice";;;;;;;;;;;;;;;;;;;;;;;;;;;;;;;;;;;;;;;;;;;;;;;;;"1961";"2014-07-21 11:19:31.631";"18";"0";"FINISHED";"LEFT";"success";"302";"0";"2014-07-21 11:19:29.670";"3";;;;;;;;;;;;;;;;;;;;;;;;;;;;;;
"FB12AS";;;"Windows 7";"Rachel's Experiment (SCIAT)";"1.0";"1";"1";"1";"1";"1";"1";"2014-07-21 11:18:25.021";"2014-07-21 11:30:25.999";"1";"0";"1";"0";"0";"5";"4";"module.GoNoGopractice.exec-8467.GoNoGo_Practice";;;;;;;;;;;;;;;;;;;;;;;;;;;;;;;;;;;;;;;;;;;;;;;;;"1952";"2014-07-21 11:19:34.901";"21";"1";"FINISHED";"RIGHT";"success";"304";"0";"2014-07-21 11:19:32.949";"3";;;;;;;;;;;;;;;;;;;;;;;;;;;;;;
"FB12AS";;;"Windows 7";"Rachel's Experiment (SCIAT)";"1.0";"1";"1";"1";"1";"1";"1";"2014-07-21 11:18:25.021";"2014-07-21 11:30:25.999";"1";"0";"1";"0";"0";"6";"5";"module.GoNoGopractice.exec-8467.GoNoGo_Practice";;;;;;;;;;;;;;;;;;;;;;;;;;;;;;;;;;;;;;;;;;;;;;;;;"1951";"2014-07-21 11:19:38.158";"14";"1";"FINISHED";"RIGHT";"success";"457";"0";"2014-07-21 11:19:36.206";"2";;;;;;;;;;;;;;;;;;;;;;;;;;;;;;
"FB12AS";;;"Windows 7";"Rachel's Experiment (SCIAT)";"1.0";"1";"1";"1";"1";"1";"1";"2014-07-21 11:18:25.021";"2014-07-21 11:30:25.999";"1";"0";"1";"0";"0";"7";"6";"module.GoNoGopractice.exec-8467.GoNoGo_Practice";;;;;;;;;;;;;;;;;;;;;;;;;;;;;;;;;;;;;;;;;;;;;;;;;"1952";"2014-07-21 11:19:41.419";"26";"0";"FINISHED";"LEFT";"success";"341";"0";"2014-07-21 11:19:39.466";"3";;;;;;;;;;;;;;;;;;;;;;;;;;;;;;
"FB12AS";;;"Windows 7";"Rachel's Experiment (SCIAT)";"1.0";"1";"1";"1";"1";"1";"1";"2014-07-21 11:18:25.021";"2014-07-21 11:30:25.999";"1";"0";"1";"0";"0";"8";"7";"module.GoNoGopractice.exec-8467.GoNoGo_Practice";;;;;;;;;;;;;;;;;;;;;;;;;;;;;;;;;;;;;;;;;;;;;;;;;"1953";"2014-07-21 11:19:44.674";"2";"0";"FINISHED";"LEFT";"success";"351";"0";"2014-07-21 11:19:42.721";"1";;;;;;;;;;;;;;;;;;;;;;;;;;;;;;
"FB12AS";;;"Windows 7";"Rachel's Experiment (SCIAT)";"1.0";"1";"1";"1";"1";"1";"1";"2014-07-21 11:18:25.021";"2014-07-21 11:30:25.999";"1";"0";"1";"0";"0";"9";"8";"module.GoNoGopractice.exec-8467.GoNoGo_Practice";;;;;;;;;;;;;;;;;;;;;;;;;;;;;;;;;;;;;;;;;;;;;;;;;"1952";"2014-07-21 11:19:47.930";"30";"0";"FINISHED";"LEFT";"success";"403";"0";"2014-07-21 11:19:45.977";"3";;;;;;;;;;;;;;;;;;;;;;;;;;;;;;
"FB12AS";;;"Windows 7";"Rachel's Experiment (SCIAT)";"1.0";"1";"1";"1";"1";"1";"1";"2014-07-21 11:18:25.021";"2014-07-21 11:30:25.999";"1";"0";"1";"0";"0";"10";"9";"module.GoNoGopractice.exec-8467.GoNoGo_Practice";;;;;;;;;;;;;;;;;;;;;;;;;;;;;;;;;;;;;;;;;;;;;;;;;"1953";"2014-07-21 11:19:51.213";"6";"1";"FINISHED";"RIGHT";"success";"350";"0";"2014-07-21 11:19:49.258";"1";;;;;;;;;;;;;;;;;;;;;;;;;;;;;;
"FB12AS";;;"Windows 7";"Rachel's Experiment (SCIAT)";"1.0";"1";"1";"1";"1";"1";"1";"2014-07-21 11:18:25.021";"2014-07-21 11:30:25.999";"1";"0";"1";"0";"0";"11";"10";"module.GoNoGopractice.exec-8467.GoNoGo_Practice";;;;;;;;;;;;;;;;;;;;;;;;;;;;;;;;;;;;;;;;;;;;;;;;;"1953";"2014-07-21 11:19:54.469";"34";"0";"FINISHED";"LEFT";"success";"370";"0";"2014-07-21 11:19:52.516";"3";;;;;;;;;;;;;;;;;;;;;;;;;;;;;;
"FB12AS";;;"Windows 7";"Rachel's Experiment (SCIAT)";"1.0";"1";"1";"1";"1";"1";"1";"2014-07-21 11:18:25.021";"2014-07-21 11:30:25.999";"1";"0";"1";"0";"0";"12";"11";"module.GoNoGopractice.exec-8467.GoNoGo_Practice";;;;;;;;;;;;;;;;;;;;;;;;;;;;;;;;;;;;;;;;;;;;;;;;;"1951";"2014-07-21 11:19:57.723";"23";"1";"FINISHED";"RIGHT";"success";"373";"0";"2014-07-21 11:19:55.771";"3";;;;;;;;;;;;;;;;;;;;;;;;;;;;;;
"FB12AS";;;"Windows 7";"Rachel's Experiment (SCIAT)";"1.0";"1";"1";"1";"1";"1";"1";"2014-07-21 11:18:25.021";"2014-07-21 11:30:25.999";"1";"0";"1";"0";"0";"13";"12";"module.GoNoGopractice.exec-8467.GoNoGo_Practice";;;;;;;;;;;;;;;;;;;;;;;;;;;;;;;;;;;;;;;;;;;;;;;;;"1958";"2014-07-21 11:20:01.120";"13";"0";"FINISHED";"LEFT";"success";"450";"0";"2014-07-21 11:19:59.161";"2";;;;;;;;;;;;;;;;;;;;;;;;;;;;;;
"FB12AS";;;"Windows 7";"Rachel's Experiment (SCIAT)";"1.0";"1";"1";"1";"1";"1";"1";"2014-07-21 11:18:25.021";"2014-07-21 11:30:25.999";"1";"0";"1";"0";"0";"14";"13";"module.GoNoGopractice.exec-8467.GoNoGo_Practice";;;;;;;;;;;;;;;;;;;;;;;;;;;;;;;;;;;;;;;;;;;;;;;;;"1952";"2014-07-21 11:20:04.372";"3";"1";"FINISHED";"RIGHT";"success";"291";"0";"2014-07-21 11:20:02.419";"1";;;;;;;;;;;;;;;;;;;;;;;;;;;;;;
"FB12AS";;;"Windows 7";"Rachel's Experiment (SCIAT)";"1.0";"1";"1";"1";"1";"1";"1";"2014-07-21 11:18:25.021";"2014-07-21 11:30:25.999";"1";"0";"1";"0";"0";"15";"14";"module.GoNoGopractice.exec-8467.GoNoGo_Practice";;;;;;;;;;;;;;;;;;;;;;;;;;;;;;;;;;;;;;;;;;;;;;;;;"1951";"2014-07-21 11:20:07.627";"27";"1";"FINISHED";"RIGHT";"success";"411";"0";"2014-07-21 11:20:05.675";"3";;;;;;;;;;;;;;;;;;;;;;;;;;;;;;
"FB12AS";;;"Windows 7";"Rachel's Experiment (SCIAT)";"1.0";"1";"1";"1";"1";"1";"1";"2014-07-21 11:18:25.021";"2014-07-21 11:30:25.999";"1";"0";"1";"0";"0";"16";"15";"module.training_block1.exec-5543.GoNoGo1";"1251";"2014-07-21 11:20:16.722";"NST_correctLoc";"7";"0";"FINISHED";"LEFT";"success";"327";"0";"2014-07-21 11:20:15.470";"1";;;;;;;;;;;;;;;;;;;;;;;;;;;;;;;;;;;;;;;;;;;;;;;;;;;;;;;;;;;;;;;;;;;;;;;;;;;;;
"FB12AS";;;"Windows 7";"Rachel's Experiment (SCIAT)";"1.0";"1";"1";"1";"1";"1";"1";"2014-07-21 11:18:25.021";"2014-07-21 11:30:25.999";"1";"0";"1";"0";"0";"17";"16";"module.training_block1.exec-5543.GoNoGo1";"1249";"2014-07-21 11:20:19.274";"NST_correctLoc";"8";"1";"FINISHED";"RIGHT";"success";"355";"0";"2014-07-21 11:20:18.024";"1";;;;;;;;;;;;;;;;;;;;;;;;;;;;;;;;;;;;;;;;;;;;;;;;;;;;;;;;;;;;;;;;;;;;;;;;;;;;;
"FB12AS";;;"Windows 7";"Rachel's Experiment (SCIAT)";"1.0";"1";"1";"1";"1";"1";"1";"2014-07-21 11:18:25.021";"2014-07-21 11:30:25.999";"1";"0";"1";"0";"0";"18";"17";"module.training_block1.exec-5543.GoNoGo1";"1249";"2014-07-21 11:20:21.824";"NST_correctLoc";"9";"0";"FINISHED";"LEFT";"success";"355";"0";"2014-07-21 11:20:20.574";"2";;;;;;;;;;;;;;;;;;;;;;;;;;;;;;;;;;;;;;;;;;;;;;;;;;;;;;;;;;;;;;;;;;;;;;;;;;;;;
"FB12AS";;;"Windows 7";"Rachel's Experiment (SCIAT)";"1.0";"1";"1";"1";"1";"1";"1";"2014-07-21 11:18:25.021";"2014-07-21 11:30:25.999";"1";"0";"1";"0";"0";"19";"18";"module.training_block1.exec-5543.GoNoGo1";"1249";"2014-07-21 11:20:24.371";"NST_correctLoc";"26";"0";"FINISHED";"LEFT";"success";"418";"0";"2014-07-21 11:20:23.121";"3";;;;;;;;;;;;;;;;;;;;;;;;;;;;;;;;;;;;;;;;;;;;;;;;;;;;;;;;;;;;;;;;;;;;;;;;;;;;;
"FB12AS";;;"Windows 7";"Rachel's Experiment (SCIAT)";"1.0";"1";"1";"1";"1";"1";"1";"2014-07-21 11:18:25.021";"2014-07-21 11:30:25.999";"1";"0";"1";"0";"0";"20";"19";"module.training_block1.exec-5543.GoNoGo1";"1249";"2014-07-21 11:20:26.920";"NST_correctLoc";"5";"1";"FINISHED";"RIGHT";"success";"340";"0";"2014-07-21 11:20:25.670";"1";;;;;;;;;;;;;;;;;;;;;;;;;;;;;;;;;;;;;;;;;;;;;;;;;;;;;;;;;;;;;;;;;;;;;;;;;;;;;
"FB12AS";;;"Windows 7";"Rachel's Experiment (SCIAT)";"1.0";"1";"1";"1";"1";"1";"1";"2014-07-21 11:18:25.021";"2014-07-21 11:30:25.999";"1";"0";"1";"0";"0";"21";"20";"module.training_block1.exec-5543.GoNoGo1";"1250";"2014-07-21 11:20:29.470";"NST_correctLoc";"29";"0";"FINISHED";"LEFT";"success";"303";"0";"2014-07-21 11:20:28.220";"3";;;;;;;;;;;;;;;;;;;;;;;;;;;;;;;;;;;;;;;;;;;;;;;;;;;;;;;;;;;;;;;;;;;;;;;;;;;;;
"FB12AS";;;"Windows 7";"Rachel's Experiment (SCIAT)";"1.0";"1";"1";"1";"1";"1";"1";"2014-07-21 11:18:25.021";"2014-07-21 11:30:25.999";"1";"0";"1";"0";"0";"22";"21";"module.training_block1.exec-5543.GoNoGo1";"1249";"2014-07-21 11:20:32.020";"NST_correctLoc";"2";"0";"FINISHED";"LEFT";"success";"366";"0";"2014-07-21 11:20:30.770";"1";;;;;;;;;;;;;;;;;;;;;;;;;;;;;;;;;;;;;;;;;;;;;;;;;;;;;;;;;;;;;;;;;;;;;;;;;;;;;
"FB12AS";;;"Windows 7";"Rachel's Experiment (SCIAT)";"1.0";"1";"1";"1";"1";"1";"1";"2014-07-21 11:18:25.021";"2014-07-21 11:30:25.999";"1";"0";"1";"0";"0";"23";"22";"module.training_block1.exec-5543.GoNoGo1";"1249";"2014-07-21 11:20:34.571";"NST_correctLoc";"23";"0";"FINISHED";"LEFT";"success";"277";"0";"2014-07-21 11:20:33.321";"3";;;;;;;;;;;;;;;;;;;;;;;;;;;;;;;;;;;;;;;;;;;;;;;;;;;;;;;;;;;;;;;;;;;;;;;;;;;;;
"FB12AS";;;"Windows 7";"Rachel's Experiment (SCIAT)";"1.0";"1";"1";"1";"1";"1";"1";"2014-07-21 11:18:25.021";"2014-07-21 11:30:25.999";"1";"0";"1";"0";"0";"24";"23";"module.training_block1.exec-5543.GoNoGo1";"1249";"2014-07-21 11:20:37.125";"NST_correctLoc";"11";"1";"FINISHED";"RIGHT";"success";"323";"0";"2014-07-21 11:20:35.875";"2";;;;;;;;;;;;;;;;;;;;;;;;;;;;;;;;;;;;;;;;;;;;;;;;;;;;;;;;;;;;;;;;;;;;;;;;;;;;;
"FB12AS";;;"Windows 7";"Rachel's Experiment (SCIAT)";"1.0";"1";"1";"1";"1";"1";"1";"2014-07-21 11:18:25.021";"2014-07-21 11:30:25.999";"1";"0";"1";"0";"0";"25";"24";"module.training_block1.exec-5543.GoNoGo1";"1249";"2014-07-21 11:20:39.672";"NST_correctLoc";"14";"0";"FINISHED";"LEFT";"success";"328";"0";"2014-07-21 11:20:38.422";"2";;;;;;;;;;;;;;;;;;;;;;;;;;;;;;;;;;;;;;;;;;;;;;;;;;;;;;;;;;;;;;;;;;;;;;;;;;;;;
"FB12AS";;;"Windows 7";"Rachel's Experiment (SCIAT)";"1.0";"1";"1";"1";"1";"1";"1";"2014-07-21 11:18:25.021";"2014-07-21 11:30:25.999";"1";"0";"1";"0";"0";"26";"25";"module.training_block1.exec-5543.GoNoGo1";"1250";"2014-07-21 11:20:42.220";"NST_correctLoc";"15";"0";"FINISHED";"LEFT";"success";"331";"0";"2014-07-21 11:20:40.970";"2";;;;;;;;;;;;;;;;;;;;;;;;;;;;;;;;;;;;;;;;;;;;;;;;;;;;;;;;;;;;;;;;;;;;;;;;;;;;;
"FB12AS";;;"Windows 7";"Rachel's Experiment (SCIAT)";"1.0";"1";"1";"1";"1";"1";"1";"2014-07-21 11:18:25.021";"2014-07-21 11:30:25.999";"1";"0";"1";"0";"0";"27";"26";"module.training_block1.exec-5543.GoNoGo1";"1250";"2014-07-21 11:20:44.769";"NST_correctLoc";"20";"1";"FINISHED";"RIGHT";"success";"355";"0";"2014-07-21 11:20:43.519";"3";;;;;;;;;;;;;;;;;;;;;;;;;;;;;;;;;;;;;;;;;;;;;;;;;;;;;;;;;;;;;;;;;;;;;;;;;;;;;
"FB12AS";;;"Windows 7";"Rachel's Experiment (SCIAT)";"1.0";"1";"1";"1";"1";"1";"1";"2014-07-21 11:18:25.021";"2014-07-21 11:30:25.999";"1";"0";"1";"0";"0";"28";"27";"module.training_block1.exec-5543.GoNoGo1";"1249";"2014-07-21 11:20:47.316";"NST_correctLoc";"16";"0";"FINISHED";"LEFT";"success";"329";"0";"2014-07-21 11:20:46.066";"2";;;;;;;;;;;;;;;;;;;;;;;;;;;;;;;;;;;;;;;;;;;;;;;;;;;;;;;;;;;;;;;;;;;;;;;;;;;;;
"FB12AS";;;"Windows 7";"Rachel's Experiment (SCIAT)";"1.0";"1";"1";"1";"1";"1";"1";"2014-07-21 11:18:25.021";"2014-07-21 11:30:25.999";"1";"0";"1";"0";"0";"29";"28";"module.training_block1.exec-5543.GoNoGo1";"1250";"2014-07-21 11:20:49.865";"NST_correctLoc";"0";"1";"FINISHED";"RIGHT";"success";"353";"0";"2014-07-21 11:20:48.615";"1";;;;;;;;;;;;;;;;;;;;;;;;;;;;;;;;;;;;;;;;;;;;;;;;;;;;;;;;;;;;;;;;;;;;;;;;;;;;;
"FB12AS";;;"Windows 7";"Rachel's Experiment (SCIAT)";"1.0";"1";"1";"1";"1";"1";"1";"2014-07-21 11:18:25.021";"2014-07-21 11:30:25.999";"1";"0";"1";"0";"0";"30";"29";"module.training_block1.exec-5543.GoNoGo1";"1250";"2014-07-21 11:20:52.413";"NST_correctLoc";"4";"0";"FINISHED";"LEFT";"success";"346";"0";"2014-07-21 11:20:51.163";"1";;;;;;;;;;;;;;;;;;;;;;;;;;;;;;;;;;;;;;;;;;;;;;;;;;;;;;;;;;;;;;;;;;;;;;;;;;;;;
"FB12AS";;;"Windows 7";"Rachel's Experiment (SCIAT)";"1.0";"1";"1";"1";"1";"1";"1";"2014-07-21 11:18:25.021";"2014-07-21 11:30:25.999";"1";"0";"1";"0";"0";"31";"30";"module.training_block1.exec-5543.GoNoGo1";"1249";"2014-07-21 11:20:54.959";"NST_correctLoc";"31";"1";"FINISHED";"RIGHT";"success";"270";"0";"2014-07-21 11:20:53.709";"3";;;;;;;;;;;;;;;;;;;;;;;;;;;;;;;;;;;;;;;;;;;;;;;;;;;;;;;;;;;;;;;;;;;;;;;;;;;;;
"FB12AS";;;"Windows 7";"Rachel's Experiment (SCIAT)";"1.0";"1";"1";"1";"1";"1";"1";"2014-07-21 11:18:25.021";"2014-07-21 11:30:25.999";"1";"0";"1";"0";"0";"32";"31";"module.training_block1.exec-5543.GoNoGo1";"1250";"2014-07-21 11:20:57.506";"NST_correctLoc";"12";"1";"FINISHED";"RIGHT";"success";"364";"0";"2014-07-21 11:20:56.256";"2";;;;;;;;;;;;;;;;;;;;;;;;;;;;;;;;;;;;;;;;;;;;;;;;;;;;;;;;;;;;;;;;;;;;;;;;;;;;;
"FB12AS";;;"Windows 7";"Rachel's Experiment (SCIAT)";"1.0";"1";"1";"1";"1";"1";"1";"2014-07-21 11:18:25.021";"2014-07-21 11:30:25.999";"1";"0";"1";"0";"0";"33";"32";"module.training_block1.exec-5543.GoNoGo1";"1250";"2014-07-21 11:21:00.052";"NST_correctLoc";"33";"0";"FINISHED";"LEFT";"success";"349";"0";"2014-07-21 11:20:58.802";"3";;;;;;;;;;;;;;;;;;;;;;;;;;;;;;;;;;;;;;;;;;;;;;;;;;;;;;;;;;;;;;;;;;;;;;;;;;;;;
"FB12AS";;;"Windows 7";"Rachel's Experiment (SCIAT)";"1.0";"1";"1";"1";"1";"1";"1";"2014-07-21 11:18:25.021";"2014-07-21 11:30:25.999";"1";"0";"1";"0";"0";"34";"33";"module.training_block1.exec-5543.GoNoGo1";"1249";"2014-07-21 11:21:02.599";"NST_correctLoc";"6";"0";"FINISHED";"LEFT";"success";"355";"0";"2014-07-21 11:21:01.349";"1";;;;;;;;;;;;;;;;;;;;;;;;;;;;;;;;;;;;;;;;;;;;;;;;;;;;;;;;;;;;;;;;;;;;;;;;;;;;;
"FB12AS";;;"Windows 7";"Rachel's Experiment (SCIAT)";"1.0";"1";"1";"1";"1";"1";"1";"2014-07-21 11:18:25.021";"2014-07-21 11:30:25.999";"1";"0";"1";"0";"0";"35";"34";"module.training_block1.exec-5543.GoNoGo1";"1249";"2014-07-21 11:21:05.143";"NST_correctLoc";"18";"1";"FINISHED";"RIGHT";"success";"281";"0";"2014-07-21 11:21:03.893";"3";;;;;;;;;;;;;;;;;;;;;;;;;;;;;;;;;;;;;;;;;;;;;;;;;;;;;;;;;;;;;;;;;;;;;;;;;;;;;
"FB12AS";;;"Windows 7";"Rachel's Experiment (SCIAT)";"1.0";"1";"1";"1";"1";"1";"1";"2014-07-21 11:18:25.021";"2014-07-21 11:30:25.999";"1";"0";"1";"0";"0";"36";"35";"module.training_block1.exec-5543.GoNoGo1";"1250";"2014-07-21 11:21:07.696";"NST_correctLoc";"24";"0";"FINISHED";"LEFT";"success";"321";"0";"2014-07-21 11:21:06.446";"3";;;;;;;;;;;;;;;;;;;;;;;;;;;;;;;;;;;;;;;;;;;;;;;;;;;;;;;;;;;;;;;;;;;;;;;;;;;;;
"FB12AS";;;"Windows 7";"Rachel's Experiment (SCIAT)";"1.0";"1";"1";"1";"1";"1";"1";"2014-07-21 11:18:25.021";"2014-07-21 11:30:25.999";"1";"0";"1";"0";"0";"37";"36";"module.training_block1.exec-5543.GoNoGo1";"1249";"2014-07-21 11:21:10.241";"NST_correctLoc";"1";"0";"FINISHED";"LEFT";"success";"371";"0";"2014-07-21 11:21:08.991";"1";;;;;;;;;;;;;;;;;;;;;;;;;;;;;;;;;;;;;;;;;;;;;;;;;;;;;;;;;;;;;;;;;;;;;;;;;;;;;
"FB12AS";;;"Windows 7";"Rachel's Experiment (SCIAT)";"1.0";"1";"1";"1";"1";"1";"1";"2014-07-21 11:18:25.021";"2014-07-21 11:30:25.999";"1";"0";"1";"0";"0";"38";"37";"module.training_block1.exec-5543.GoNoGo1";"1249";"2014-07-21 11:21:12.779";"NST_correctLoc";"13";"0";"FINISHED";"LEFT";"success";"335";"0";"2014-07-21 11:21:11.529";"2";;;;;;;;;;;;;;;;;;;;;;;;;;;;;;;;;;;;;;;;;;;;;;;;;;;;;;;;;;;;;;;;;;;;;;;;;;;;;
"FB12AS";;;"Windows 7";"Rachel's Experiment (SCIAT)";"1.0";"1";"1";"1";"1";"1";"1";"2014-07-21 11:18:25.021";"2014-07-21 11:30:25.999";"1";"0";"1";"0";"0";"39";"38";"module.training_block1.exec-5543.GoNoGo1";"1250";"2014-07-21 11:21:15.317";"NST_correctLoc";"3";"1";"FINISHED";"RIGHT";"success";"377";"0";"2014-07-21 11:21:14.067";"1";;;;;;;;;;;;;;;;;;;;;;;;;;;;;;;;;;;;;;;;;;;;;;;;;;;;;;;;;;;;;;;;;;;;;;;;;;;;;
"FB12AS";;;"Windows 7";"Rachel's Experiment (SCIAT)";"1.0";"1";"1";"1";"1";"1";"1";"2014-07-21 11:18:25.021";"2014-07-21 11:30:25.999";"1";"0";"1";"0";"0";"40";"39";"module.training_block1.exec-5543.GoNoGo1";"1249";"2014-07-21 11:21:17.864";"NST_correctLoc";"19";"0";"FINISHED";"LEFT";"success";"343";"0";"2014-07-21 11:21:16.613";"3";;;;;;;;;;;;;;;;;;;;;;;;;;;;;;;;;;;;;;;;;;;;;;;;;;;;;;;;;;;;;;;;;;;;;;;;;;;;;
"FB12AS";;;"Windows 7";"Rachel's Experiment (SCIAT)";"1.0";"1";"1";"1";"1";"1";"1";"2014-07-21 11:18:25.021";"2014-07-21 11:30:25.999";"1";"0";"1";"0";"0";"41";"40";"module.training_block1.exec-5543.GoNoGo1";"1249";"2014-07-21 11:21:20.408";"NST_correctLoc";"17";"0";"FINISHED";"LEFT";"success";"512";"0";"2014-07-21 11:21:19.158";"2";;;;;;;;;;;;;;;;;;;;;;;;;;;;;;;;;;;;;;;;;;;;;;;;;;;;;;;;;;;;;;;;;;;;;;;;;;;;;
"FB12AS";;;"Windows 7";"Rachel's Experiment (SCIAT)";"1.0";"1";"1";"1";"1";"1";"1";"2014-07-21 11:18:25.021";"2014-07-21 11:30:25.999";"1";"0";"1";"0";"0";"42";"41";"module.training_block1.exec-5543.GoNoGo1";"1250";"2014-07-21 11:21:22.955";"NST_correctLoc";"30";"1";"FINISHED";"RIGHT";"success";"367";"0";"2014-07-21 11:21:21.705";"3";;;;;;;;;;;;;;;;;;;;;;;;;;;;;;;;;;;;;;;;;;;;;;;;;;;;;;;;;;;;;;;;;;;;;;;;;;;;;
"FB12AS";;;"Windows 7";"Rachel's Experiment (SCIAT)";"1.0";"1";"1";"1";"1";"1";"1";"2014-07-21 11:18:25.021";"2014-07-21 11:30:25.999";"1";"0";"1";"0";"0";"43";"42";"module.training_block1.exec-5543.GoNoGo1";"1249";"2014-07-21 11:21:25.499";"NST_correctLoc";"28";"1";"FINISHED";"RIGHT";"success";"335";"0";"2014-07-21 11:21:24.249";"3";;;;;;;;;;;;;;;;;;;;;;;;;;;;;;;;;;;;;;;;;;;;;;;;;;;;;;;;;;;;;;;;;;;;;;;;;;;;;
"FB12AS";;;"Windows 7";"Rachel's Experiment (SCIAT)";"1.0";"1";"1";"1";"1";"1";"1";"2014-07-21 11:18:25.021";"2014-07-21 11:30:25.999";"1";"0";"1";"0";"0";"44";"43";"module.training_block1.exec-5543.GoNoGo1";"1250";"2014-07-21 11:21:28.041";"NST_correctLoc";"34";"0";"FINISHED";"LEFT";"success";"266";"0";"2014-07-21 11:21:26.791";"3";;;;;;;;;;;;;;;;;;;;;;;;;;;;;;;;;;;;;;;;;;;;;;;;;;;;;;;;;;;;;;;;;;;;;;;;;;;;;
"FB12AS";;;"Windows 7";"Rachel's Experiment (SCIAT)";"1.0";"1";"1";"1";"1";"1";"1";"2014-07-21 11:18:25.021";"2014-07-21 11:30:25.999";"1";"0";"1";"0";"0";"45";"44";"module.training_block1.exec-5543.GoNoGo1";"1249";"2014-07-21 11:21:30.585";"NST_correctLoc";"22";"0";"FINISHED";"LEFT";"success";"333";"0";"2014-07-21 11:21:29.335";"3";;;;;;;;;;;;;;;;;;;;;;;;;;;;;;;;;;;;;;;;;;;;;;;;;;;;;;;;;;;;;;;;;;;;;;;;;;;;;
"FB12AS";;;"Windows 7";"Rachel's Experiment (SCIAT)";"1.0";"1";"1";"1";"1";"1";"1";"2014-07-21 11:18:25.021";"2014-07-21 11:30:25.999";"1";"0";"1";"0";"0";"46";"45";"module.training_block1.exec-5543.GoNoGo1";"1250";"2014-07-21 11:21:33.129";"NST_correctLoc";"10";"0";"FINISHED";"LEFT";"success";"372";"0";"2014-07-21 11:21:31.879";"2";;;;;;;;;;;;;;;;;;;;;;;;;;;;;;;;;;;;;;;;;;;;;;;;;;;;;;;;;;;;;;;;;;;;;;;;;;;;;
"FB12AS";;;"Windows 7";"Rachel's Experiment (SCIAT)";"1.0";"1";"1";"1";"1";"1";"1";"2014-07-21 11:18:25.021";"2014-07-21 11:30:25.999";"1";"0";"1";"0";"0";"47";"46";"module.training_block1.exec-5543.GoNoGo1";"1249";"2014-07-21 11:21:35.669";"NST_correctLoc";"27";"1";"FINISHED";"RIGHT";"success";"324";"0";"2014-07-21 11:21:34.418";"3";;;;;;;;;;;;;;;;;;;;;;;;;;;;;;;;;;;;;;;;;;;;;;;;;;;;;;;;;;;;;;;;;;;;;;;;;;;;;
"FB12AS";;;"Windows 7";"Rachel's Experiment (SCIAT)";"1.0";"1";"1";"1";"1";"1";"1";"2014-07-21 11:18:25.021";"2014-07-21 11:30:25.999";"1";"0";"1";"0";"0";"48";"47";"module.training_block1.exec-5543.GoNoGo1";"1250";"2014-07-21 11:21:38.220";"NST_correctLoc";"32";"1";"FINISHED";"RIGHT";"success";"336";"0";"2014-07-21 11:21:36.970";"3";;;;;;;;;;;;;;;;;;;;;;;;;;;;;;;;;;;;;;;;;;;;;;;;;;;;;;;;;;;;;;;;;;;;;;;;;;;;;
"FB12AS";;;"Windows 7";"Rachel's Experiment (SCIAT)";"1.0";"1";"1";"1";"1";"1";"1";"2014-07-21 11:18:25.021";"2014-07-21 11:30:25.999";"1";"0";"1";"0";"0";"49";"48";"module.training_block1.exec-5543.GoNoGo1";"1249";"2014-07-21 11:21:40.762";"NST_correctLoc";"25";"1";"FINISHED";"RIGHT";"success";"365";"0";"2014-07-21 11:21:39.512";"3";;;;;;;;;;;;;;;;;;;;;;;;;;;;;;;;;;;;;;;;;;;;;;;;;;;;;;;;;;;;;;;;;;;;;;;;;;;;;
"FB12AS";;;"Windows 7";"Rachel's Experiment (SCIAT)";"1.0";"1";"1";"1";"1";"1";"1";"2014-07-21 11:18:25.021";"2014-07-21 11:30:25.999";"1";"0";"1";"0";"0";"50";"49";"module.training_block1.exec-5543.GoNoGo1";"1249";"2014-07-21 11:21:43.303";"NST_correctLoc";"21";"0";"FINISHED";"LEFT";"success";"326";"0";"2014-07-21 11:21:42.053";"3";;;;;;;;;;;;;;;;;;;;;;;;;;;;;;;;;;;;;;;;;;;;;;;;;;;;;;;;;;;;;;;;;;;;;;;;;;;;;
"FB12AS";;;"Windows 7";"Rachel's Experiment (SCIAT)";"1.0";"1";"1";"1";"1";"1";"1";"2014-07-21 11:18:25.021";"2014-07-21 11:30:25.999";"1";"0";"1";"0";"0";"51";"50";"module.training_block1.exec-5543.GoNoGo1";"1250";"2014-07-21 11:21:45.847";"NST_correctLoc";"35";"1";"FINISHED";"RIGHT";"success";"335";"0";"2014-07-21 11:21:44.597";"3";;;;;;;;;;;;;;;;;;;;;;;;;;;;;;;;;;;;;;;;;;;;;;;;;;;;;;;;;;;;;;;;;;;;;;;;;;;;;
"FB12AS";;;"Windows 7";"Rachel's Experiment (SCIAT)";"1.0";"1";"1";"1";"1";"1";"1";"2014-07-21 11:18:25.021";"2014-07-21 11:30:25.999";"1";"0";"1";"0";"0";"52";"51";"module.training_block2.exec-2040.GoNoGo2";;;;;;;;;;;;;"1249";"2014-07-21 11:21:57.583";"NST_correctLoc";"16";"0";"FINISHED";"LEFT";"success";"384";"0";"2014-07-21 11:21:56.333";"2";;;;;;;;;;;;;;;;;;;;;;;;;;;;;;;;;;;;;;;;;;;;;;;;;;;;;;;;;;;;;;;;;
"FB12AS";;;"Windows 7";"Rachel's Experiment (SCIAT)";"1.0";"1";"1";"1";"1";"1";"1";"2014-07-21 11:18:25.021";"2014-07-21 11:30:25.999";"1";"0";"1";"0";"0";"53";"52";"module.training_block2.exec-2040.GoNoGo2";;;;;;;;;;;;;"1249";"2014-07-21 11:22:00.120";"NST_correctLoc";"23";"1";"FINISHED";"RIGHT";"success";"280";"0";"2014-07-21 11:21:58.870";"3";;;;;;;;;;;;;;;;;;;;;;;;;;;;;;;;;;;;;;;;;;;;;;;;;;;;;;;;;;;;;;;;;
"FB12AS";;;"Windows 7";"Rachel's Experiment (SCIAT)";"1.0";"1";"1";"1";"1";"1";"1";"2014-07-21 11:18:25.021";"2014-07-21 11:30:25.999";"1";"0";"1";"0";"0";"54";"53";"module.training_block2.exec-2040.GoNoGo2";;;;;;;;;;;;;"1249";"2014-07-21 11:22:02.655";"NST_correctLoc";"25";"0";"FINISHED";"LEFT";"success";"318";"0";"2014-07-21 11:22:01.405";"3";;;;;;;;;;;;;;;;;;;;;;;;;;;;;;;;;;;;;;;;;;;;;;;;;;;;;;;;;;;;;;;;;
"FB12AS";;;"Windows 7";"Rachel's Experiment (SCIAT)";"1.0";"1";"1";"1";"1";"1";"1";"2014-07-21 11:18:25.021";"2014-07-21 11:30:25.999";"1";"0";"1";"0";"0";"55";"54";"module.training_block2.exec-2040.GoNoGo2";;;;;;;;;;;;;"1249";"2014-07-21 11:22:05.191";"NST_correctLoc";"22";"1";"FINISHED";"RIGHT";"success";"304";"0";"2014-07-21 11:22:03.941";"3";;;;;;;;;;;;;;;;;;;;;;;;;;;;;;;;;;;;;;;;;;;;;;;;;;;;;;;;;;;;;;;;;
"FB12AS";;;"Windows 7";"Rachel's Experiment (SCIAT)";"1.0";"1";"1";"1";"1";"1";"1";"2014-07-21 11:18:25.021";"2014-07-21 11:30:25.999";"1";"0";"1";"0";"0";"56";"55";"module.training_block2.exec-2040.GoNoGo2";;;;;;;;;;;;;"1249";"2014-07-21 11:22:07.726";"NST_correctLoc";"12";"0";"FINISHED";"LEFT";"success";"305";"0";"2014-07-21 11:22:06.476";"2";;;;;;;;;;;;;;;;;;;;;;;;;;;;;;;;;;;;;;;;;;;;;;;;;;;;;;;;;;;;;;;;;
"FB12AS";;;"Windows 7";"Rachel's Experiment (SCIAT)";"1.0";"1";"1";"1";"1";"1";"1";"2014-07-21 11:18:25.021";"2014-07-21 11:30:25.999";"1";"0";"1";"0";"0";"57";"56";"module.training_block2.exec-2040.GoNoGo2";;;;;;;;;;;;;"1249";"2014-07-21 11:22:10.262";"NST_correctLoc";"24";"1";"FINISHED";"RIGHT";"success";"294";"0";"2014-07-21 11:22:09.011";"3";;;;;;;;;;;;;;;;;;;;;;;;;;;;;;;;;;;;;;;;;;;;;;;;;;;;;;;;;;;;;;;;;
"FB12AS";;;"Windows 7";"Rachel's Experiment (SCIAT)";"1.0";"1";"1";"1";"1";"1";"1";"2014-07-21 11:18:25.021";"2014-07-21 11:30:25.999";"1";"0";"1";"0";"0";"58";"57";"module.training_block2.exec-2040.GoNoGo2";;;;;;;;;;;;;"1250";"2014-07-21 11:22:12.798";"NST_correctLoc";"32";"0";"FINISHED";"LEFT";"success";"260";"0";"2014-07-21 11:22:11.548";"3";;;;;;;;;;;;;;;;;;;;;;;;;;;;;;;;;;;;;;;;;;;;;;;;;;;;;;;;;;;;;;;;;
"FB12AS";;;"Windows 7";"Rachel's Experiment (SCIAT)";"1.0";"1";"1";"1";"1";"1";"1";"2014-07-21 11:18:25.021";"2014-07-21 11:30:25.999";"1";"0";"1";"0";"0";"59";"58";"module.training_block2.exec-2040.GoNoGo2";;;;;;;;;;;;;"1249";"2014-07-21 11:22:15.333";"NST_correctLoc";"18";"1";"FINISHED";"RIGHT";"success";"246";"0";"2014-07-21 11:22:14.083";"3";;;;;;;;;;;;;;;;;;;;;;;;;;;;;;;;;;;;;;;;;;;;;;;;;;;;;;;;;;;;;;;;;
"FB12AS";;;"Windows 7";"Rachel's Experiment (SCIAT)";"1.0";"1";"1";"1";"1";"1";"1";"2014-07-21 11:18:25.021";"2014-07-21 11:30:25.999";"1";"0";"1";"0";"0";"60";"59";"module.training_block2.exec-2040.GoNoGo2";;;;;;;;;;;;;"1249";"2014-07-21 11:22:17.867";"NST_wrongLoc";"6";"1";"FINISHED";"LEFT";"failure";"257";"0";"2014-07-21 11:22:16.617";"1";;;;;;;;;;;;;;;;;;;;;;;;;;;;;;;;;;;;;;;;;;;;;;;;;;;;;;;;;;;;;;;;;
"FB12AS";;;"Windows 7";"Rachel's Experiment (SCIAT)";"1.0";"1";"1";"1";"1";"1";"1";"2014-07-21 11:18:25.021";"2014-07-21 11:30:25.999";"1";"0";"1";"0";"0";"61";"60";"module.training_block2.exec-2040.GoNoGo2";;;;;;;;;;;;;"1249";"2014-07-21 11:22:20.401";"NST_correctLoc";"1";"0";"FINISHED";"LEFT";"success";"417";"0";"2014-07-21 11:22:19.151";"1";;;;;;;;;;;;;;;;;;;;;;;;;;;;;;;;;;;;;;;;;;;;;;;;;;;;;;;;;;;;;;;;;
"FB12AS";;;"Windows 7";"Rachel's Experiment (SCIAT)";"1.0";"1";"1";"1";"1";"1";"1";"2014-07-21 11:18:25.021";"2014-07-21 11:30:25.999";"1";"0";"1";"0";"0";"62";"61";"module.training_block2.exec-2040.GoNoGo2";;;;;;;;;;;;;"1250";"2014-07-21 11:22:22.936";"NST_correctLoc";"13";"0";"FINISHED";"LEFT";"success";"467";"0";"2014-07-21 11:22:21.686";"2";;;;;;;;;;;;;;;;;;;;;;;;;;;;;;;;;;;;;;;;;;;;;;;;;;;;;;;;;;;;;;;;;
"FB12AS";;;"Windows 7";"Rachel's Experiment (SCIAT)";"1.0";"1";"1";"1";"1";"1";"1";"2014-07-21 11:18:25.021";"2014-07-21 11:30:25.999";"1";"0";"1";"0";"0";"63";"62";"module.training_block2.exec-2040.GoNoGo2";;;;;;;;;;;;;"1250";"2014-07-21 11:22:25.478";"NST_correctLoc";"21";"0";"FINISHED";"LEFT";"success";"388";"0";"2014-07-21 11:22:24.228";"3";;;;;;;;;;;;;;;;;;;;;;;;;;;;;;;;;;;;;;;;;;;;;;;;;;;;;;;;;;;;;;;;;
"FB12AS";;;"Windows 7";"Rachel's Experiment (SCIAT)";"1.0";"1";"1";"1";"1";"1";"1";"2014-07-21 11:18:25.021";"2014-07-21 11:30:25.999";"1";"0";"1";"0";"0";"64";"63";"module.training_block2.exec-2040.GoNoGo2";;;;;;;;;;;;;"1250";"2014-07-21 11:22:28.012";"NST_correctLoc";"7";"1";"FINISHED";"RIGHT";"success";"359";"0";"2014-07-21 11:22:26.761";"1";;;;;;;;;;;;;;;;;;;;;;;;;;;;;;;;;;;;;;;;;;;;;;;;;;;;;;;;;;;;;;;;;
"FB12AS";;;"Windows 7";"Rachel's Experiment (SCIAT)";"1.0";"1";"1";"1";"1";"1";"1";"2014-07-21 11:18:25.021";"2014-07-21 11:30:25.999";"1";"0";"1";"0";"0";"65";"64";"module.training_block2.exec-2040.GoNoGo2";;;;;;;;;;;;;"1249";"2014-07-21 11:22:30.546";"NST_correctLoc";"19";"1";"FINISHED";"RIGHT";"success";"426";"0";"2014-07-21 11:22:29.296";"3";;;;;;;;;;;;;;;;;;;;;;;;;;;;;;;;;;;;;;;;;;;;;;;;;;;;;;;;;;;;;;;;;
"FB12AS";;;"Windows 7";"Rachel's Experiment (SCIAT)";"1.0";"1";"1";"1";"1";"1";"1";"2014-07-21 11:18:25.021";"2014-07-21 11:30:25.999";"1";"0";"1";"0";"0";"66";"65";"module.training_block2.exec-2040.GoNoGo2";;;;;;;;;;;;;"1249";"2014-07-21 11:22:33.079";"NST_correctLoc";"5";"0";"FINISHED";"LEFT";"success";"466";"0";"2014-07-21 11:22:31.829";"1";;;;;;;;;;;;;;;;;;;;;;;;;;;;;;;;;;;;;;;;;;;;;;;;;;;;;;;;;;;;;;;;;
"FB12AS";;;"Windows 7";"Rachel's Experiment (SCIAT)";"1.0";"1";"1";"1";"1";"1";"1";"2014-07-21 11:18:25.021";"2014-07-21 11:30:25.999";"1";"0";"1";"0";"0";"67";"66";"module.training_block2.exec-2040.GoNoGo2";;;;;;;;;;;;;"1249";"2014-07-21 11:22:35.609";"NST_correctLoc";"10";"1";"FINISHED";"RIGHT";"success";"399";"0";"2014-07-21 11:22:34.359";"2";;;;;;;;;;;;;;;;;;;;;;;;;;;;;;;;;;;;;;;;;;;;;;;;;;;;;;;;;;;;;;;;;
"FB12AS";;;"Windows 7";"Rachel's Experiment (SCIAT)";"1.0";"1";"1";"1";"1";"1";"1";"2014-07-21 11:18:25.021";"2014-07-21 11:30:25.999";"1";"0";"1";"0";"0";"68";"67";"module.training_block2.exec-2040.GoNoGo2";;;;;;;;;;;;;"1249";"2014-07-21 11:22:38.141";"NST_correctLoc";"27";"0";"FINISHED";"LEFT";"success";"310";"0";"2014-07-21 11:22:36.891";"3";;;;;;;;;;;;;;;;;;;;;;;;;;;;;;;;;;;;;;;;;;;;;;;;;;;;;;;;;;;;;;;;;
"FB12AS";;;"Windows 7";"Rachel's Experiment (SCIAT)";"1.0";"1";"1";"1";"1";"1";"1";"2014-07-21 11:18:25.021";"2014-07-21 11:30:25.999";"1";"0";"1";"0";"0";"69";"68";"module.training_block2.exec-2040.GoNoGo2";;;;;;;;;;;;;"1250";"2014-07-21 11:22:40.673";"NST_correctLoc";"2";"1";"FINISHED";"RIGHT";"success";"310";"0";"2014-07-21 11:22:39.423";"1";;;;;;;;;;;;;;;;;;;;;;;;;;;;;;;;;;;;;;;;;;;;;;;;;;;;;;;;;;;;;;;;;
"FB12AS";;;"Windows 7";"Rachel's Experiment (SCIAT)";"1.0";"1";"1";"1";"1";"1";"1";"2014-07-21 11:18:25.021";"2014-07-21 11:30:25.999";"1";"0";"1";"0";"0";"70";"69";"module.training_block2.exec-2040.GoNoGo2";;;;;;;;;;;;;"1249";"2014-07-21 11:22:43.206";"NST_correctLoc";"17";"1";"FINISHED";"RIGHT";"success";"314";"0";"2014-07-21 11:22:41.956";"2";;;;;;;;;;;;;;;;;;;;;;;;;;;;;;;;;;;;;;;;;;;;;;;;;;;;;;;;;;;;;;;;;
"FB12AS";;;"Windows 7";"Rachel's Experiment (SCIAT)";"1.0";"1";"1";"1";"1";"1";"1";"2014-07-21 11:18:25.021";"2014-07-21 11:30:25.999";"1";"0";"1";"0";"0";"71";"70";"module.training_block2.exec-2040.GoNoGo2";;;;;;;;;;;;;"1249";"2014-07-21 11:22:45.740";"NST_correctLoc";"28";"1";"FINISHED";"RIGHT";"success";"298";"0";"2014-07-21 11:22:44.489";"3";;;;;;;;;;;;;;;;;;;;;;;;;;;;;;;;;;;;;;;;;;;;;;;;;;;;;;;;;;;;;;;;;
"FB12AS";;;"Windows 7";"Rachel's Experiment (SCIAT)";"1.0";"1";"1";"1";"1";"1";"1";"2014-07-21 11:18:25.021";"2014-07-21 11:30:25.999";"1";"0";"1";"0";"0";"72";"71";"module.training_block2.exec-2040.GoNoGo2";;;;;;;;;;;;;"1250";"2014-07-21 11:22:48.273";"NST_correctLoc";"0";"0";"FINISHED";"LEFT";"success";"322";"0";"2014-07-21 11:22:47.023";"1";;;;;;;;;;;;;;;;;;;;;;;;;;;;;;;;;;;;;;;;;;;;;;;;;;;;;;;;;;;;;;;;;
"FB12AS";;;"Windows 7";"Rachel's Experiment (SCIAT)";"1.0";"1";"1";"1";"1";"1";"1";"2014-07-21 11:18:25.021";"2014-07-21 11:30:25.999";"1";"0";"1";"0";"0";"73";"72";"module.training_block2.exec-2040.GoNoGo2";;;;;;;;;;;;;"1249";"2014-07-21 11:22:50.805";"NST_correctLoc";"4";"1";"FINISHED";"RIGHT";"success";"298";"0";"2014-07-21 11:22:49.555";"1";;;;;;;;;;;;;;;;;;;;;;;;;;;;;;;;;;;;;;;;;;;;;;;;;;;;;;;;;;;;;;;;;
"FB12AS";;;"Windows 7";"Rachel's Experiment (SCIAT)";"1.0";"1";"1";"1";"1";"1";"1";"2014-07-21 11:18:25.021";"2014-07-21 11:30:25.999";"1";"0";"1";"0";"0";"74";"73";"module.training_block2.exec-2040.GoNoGo2";;;;;;;;;;;;;"1249";"2014-07-21 11:22:53.337";"NST_correctLoc";"30";"0";"FINISHED";"LEFT";"success";"376";"0";"2014-07-21 11:22:52.087";"3";;;;;;;;;;;;;;;;;;;;;;;;;;;;;;;;;;;;;;;;;;;;;;;;;;;;;;;;;;;;;;;;;
"FB12AS";;;"Windows 7";"Rachel's Experiment (SCIAT)";"1.0";"1";"1";"1";"1";"1";"1";"2014-07-21 11:18:25.021";"2014-07-21 11:30:25.999";"1";"0";"1";"0";"0";"75";"74";"module.training_block2.exec-2040.GoNoGo2";;;;;;;;;;;;;"1249";"2014-07-21 11:22:55.869";"NST_correctLoc";"33";"1";"FINISHED";"RIGHT";"success";"342";"0";"2014-07-21 11:22:54.619";"3";;;;;;;;;;;;;;;;;;;;;;;;;;;;;;;;;;;;;;;;;;;;;;;;;;;;;;;;;;;;;;;;;
"FB12AS";;;"Windows 7";"Rachel's Experiment (SCIAT)";"1.0";"1";"1";"1";"1";"1";"1";"2014-07-21 11:18:25.021";"2014-07-21 11:30:25.999";"1";"0";"1";"0";"0";"76";"75";"module.training_block2.exec-2040.GoNoGo2";;;;;;;;;;;;;"1249";"2014-07-21 11:22:58.401";"NST_correctLoc";"31";"0";"FINISHED";"LEFT";"success";"349";"0";"2014-07-21 11:22:57.151";"3";;;;;;;;;;;;;;;;;;;;;;;;;;;;;;;;;;;;;;;;;;;;;;;;;;;;;;;;;;;;;;;;;
"FB12AS";;;"Windows 7";"Rachel's Experiment (SCIAT)";"1.0";"1";"1";"1";"1";"1";"1";"2014-07-21 11:18:25.021";"2014-07-21 11:30:25.999";"1";"0";"1";"0";"0";"77";"76";"module.training_block2.exec-2040.GoNoGo2";;;;;;;;;;;;;"1249";"2014-07-21 11:23:00.932";"NST_correctLoc";"14";"0";"FINISHED";"LEFT";"success";"386";"0";"2014-07-21 11:22:59.682";"2";;;;;;;;;;;;;;;;;;;;;;;;;;;;;;;;;;;;;;;;;;;;;;;;;;;;;;;;;;;;;;;;;
"FB12AS";;;"Windows 7";"Rachel's Experiment (SCIAT)";"1.0";"1";"1";"1";"1";"1";"1";"2014-07-21 11:18:25.021";"2014-07-21 11:30:25.999";"1";"0";"1";"0";"0";"78";"77";"module.training_block2.exec-2040.GoNoGo2";;;;;;;;;;;;;"1249";"2014-07-21 11:23:03.464";"NST_correctLoc";"34";"1";"FINISHED";"RIGHT";"success";"534";"0";"2014-07-21 11:23:02.213";"3";;;;;;;;;;;;;;;;;;;;;;;;;;;;;;;;;;;;;;;;;;;;;;;;;;;;;;;;;;;;;;;;;
"FB12AS";;;"Windows 7";"Rachel's Experiment (SCIAT)";"1.0";"1";"1";"1";"1";"1";"1";"2014-07-21 11:18:25.021";"2014-07-21 11:30:25.999";"1";"0";"1";"0";"0";"79";"78";"module.training_block2.exec-2040.GoNoGo2";;;;;;;;;;;;;"1249";"2014-07-21 11:23:05.996";"NST_correctLoc";"3";"1";"FINISHED";"RIGHT";"success";"334";"0";"2014-07-21 11:23:04.746";"1";;;;;;;;;;;;;;;;;;;;;;;;;;;;;;;;;;;;;;;;;;;;;;;;;;;;;;;;;;;;;;;;;
"FB12AS";;;"Windows 7";"Rachel's Experiment (SCIAT)";"1.0";"1";"1";"1";"1";"1";"1";"2014-07-21 11:18:25.021";"2014-07-21 11:30:25.999";"1";"0";"1";"0";"0";"80";"79";"module.training_block2.exec-2040.GoNoGo2";;;;;;;;;;;;;"1249";"2014-07-21 11:23:08.532";"NST_correctLoc";"9";"0";"FINISHED";"LEFT";"success";"348";"0";"2014-07-21 11:23:07.282";"2";;;;;;;;;;;;;;;;;;;;;;;;;;;;;;;;;;;;;;;;;;;;;;;;;;;;;;;;;;;;;;;;;
"FB12AS";;;"Windows 7";"Rachel's Experiment (SCIAT)";"1.0";"1";"1";"1";"1";"1";"1";"2014-07-21 11:18:25.021";"2014-07-21 11:30:25.999";"1";"0";"1";"0";"0";"81";"80";"module.training_block2.exec-2040.GoNoGo2";;;;;;;;;;;;;"1249";"2014-07-21 11:23:11.064";"NST_correctLoc";"11";"1";"FINISHED";"RIGHT";"success";"426";"0";"2014-07-21 11:23:09.814";"2";;;;;;;;;;;;;;;;;;;;;;;;;;;;;;;;;;;;;;;;;;;;;;;;;;;;;;;;;;;;;;;;;
"FB12AS";;;"Windows 7";"Rachel's Experiment (SCIAT)";"1.0";"1";"1";"1";"1";"1";"1";"2014-07-21 11:18:25.021";"2014-07-21 11:30:25.999";"1";"0";"1";"0";"0";"82";"81";"module.training_block2.exec-2040.GoNoGo2";;;;;;;;;;;;;"1249";"2014-07-21 11:23:13.596";"NST_correctLoc";"8";"1";"FINISHED";"RIGHT";"success";"492";"0";"2014-07-21 11:23:12.346";"1";;;;;;;;;;;;;;;;;;;;;;;;;;;;;;;;;;;;;;;;;;;;;;;;;;;;;;;;;;;;;;;;;
"FB12AS";;;"Windows 7";"Rachel's Experiment (SCIAT)";"1.0";"1";"1";"1";"1";"1";"1";"2014-07-21 11:18:25.021";"2014-07-21 11:30:25.999";"1";"0";"1";"0";"0";"83";"82";"module.training_block2.exec-2040.GoNoGo2";;;;;;;;;;;;;"1249";"2014-07-21 11:23:16.129";"NST_correctLoc";"20";"0";"FINISHED";"LEFT";"success";"380";"0";"2014-07-21 11:23:14.879";"3";;;;;;;;;;;;;;;;;;;;;;;;;;;;;;;;;;;;;;;;;;;;;;;;;;;;;;;;;;;;;;;;;
"FB12AS";;;"Windows 7";"Rachel's Experiment (SCIAT)";"1.0";"1";"1";"1";"1";"1";"1";"2014-07-21 11:18:25.021";"2014-07-21 11:30:25.999";"1";"0";"1";"0";"0";"84";"83";"module.training_block2.exec-2040.GoNoGo2";;;;;;;;;;;;;"1249";"2014-07-21 11:23:18.661";"NST_correctLoc";"15";"0";"FINISHED";"LEFT";"success";"498";"0";"2014-07-21 11:23:17.411";"2";;;;;;;;;;;;;;;;;;;;;;;;;;;;;;;;;;;;;;;;;;;;;;;;;;;;;;;;;;;;;;;;;
"FB12AS";;;"Windows 7";"Rachel's Experiment (SCIAT)";"1.0";"1";"1";"1";"1";"1";"1";"2014-07-21 11:18:25.021";"2014-07-21 11:30:25.999";"1";"0";"1";"0";"0";"85";"84";"module.training_block2.exec-2040.GoNoGo2";;;;;;;;;;;;;"1249";"2014-07-21 11:23:21.193";"NST_correctLoc";"35";"0";"FINISHED";"LEFT";"success";"348";"0";"2014-07-21 11:23:19.942";"3";;;;;;;;;;;;;;;;;;;;;;;;;;;;;;;;;;;;;;;;;;;;;;;;;;;;;;;;;;;;;;;;;
"FB12AS";;;"Windows 7";"Rachel's Experiment (SCIAT)";"1.0";"1";"1";"1";"1";"1";"1";"2014-07-21 11:18:25.021";"2014-07-21 11:30:25.999";"1";"0";"1";"0";"0";"86";"85";"module.training_block2.exec-2040.GoNoGo2";;;;;;;;;;;;;"1249";"2014-07-21 11:23:23.725";"NST_correctLoc";"29";"1";"FINISHED";"RIGHT";"success";"305";"0";"2014-07-21 11:23:22.475";"3";;;;;;;;;;;;;;;;;;;;;;;;;;;;;;;;;;;;;;;;;;;;;;;;;;;;;;;;;;;;;;;;;
"FB12AS";;;"Windows 7";"Rachel's Experiment (SCIAT)";"1.0";"1";"1";"1";"1";"1";"1";"2014-07-21 11:18:25.021";"2014-07-21 11:30:25.999";"1";"0";"1";"0";"0";"87";"86";"module.training_block2.exec-2040.GoNoGo2";;;;;;;;;;;;;"1249";"2014-07-21 11:23:26.257";"NST_correctLoc";"26";"0";"FINISHED";"LEFT";"success";"470";"0";"2014-07-21 11:23:25.007";"3";;;;;;;;;;;;;;;;;;;;;;;;;;;;;;;;;;;;;;;;;;;;;;;;;;;;;;;;;;;;;;;;;
"FB12AS";;;"Windows 7";"Rachel's Experiment (SCIAT)";"1.0";"1";"1";"1";"1";"1";"1";"2014-07-21 11:18:25.021";"2014-07-21 11:30:25.999";"1";"0";"1";"0";"0";"88";"87";"module.training_block3.exec-9097.GoNoGo3";;;;;;;;;;;;;;;;;;;;;;;;;"1249";"2014-07-21 11:23:36.335";"NST_correctLoc";"4";"1";"FINISHED";"RIGHT";"success";"310";"0";"2014-07-21 11:23:35.085";"1";;;;;;;;;;;;;;;;;;;;;;;;;;;;;;;;;;;;;;;;;;;;;;;;;;;;;
"FB12AS";;;"Windows 7";"Rachel's Experiment (SCIAT)";"1.0";"1";"1";"1";"1";"1";"1";"2014-07-21 11:18:25.021";"2014-07-21 11:30:25.999";"1";"0";"1";"0";"0";"89";"88";"module.training_block3.exec-9097.GoNoGo3";;;;;;;;;;;;;;;;;;;;;;;;;"1250";"2014-07-21 11:23:38.868";"NST_correctLoc";"22";"0";"FINISHED";"LEFT";"success";"287";"0";"2014-07-21 11:23:37.618";"3";;;;;;;;;;;;;;;;;;;;;;;;;;;;;;;;;;;;;;;;;;;;;;;;;;;;;
"FB12AS";;;"Windows 7";"Rachel's Experiment (SCIAT)";"1.0";"1";"1";"1";"1";"1";"1";"2014-07-21 11:18:25.021";"2014-07-21 11:30:25.999";"1";"0";"1";"0";"0";"90";"89";"module.training_block3.exec-9097.GoNoGo3";;;;;;;;;;;;;;;;;;;;;;;;;"1250";"2014-07-21 11:23:41.400";"NST_correctLoc";"28";"0";"FINISHED";"LEFT";"success";"288";"0";"2014-07-21 11:23:40.150";"3";;;;;;;;;;;;;;;;;;;;;;;;;;;;;;;;;;;;;;;;;;;;;;;;;;;;;
"FB12AS";;;"Windows 7";"Rachel's Experiment (SCIAT)";"1.0";"1";"1";"1";"1";"1";"1";"2014-07-21 11:18:25.021";"2014-07-21 11:30:25.999";"1";"0";"1";"0";"0";"91";"90";"module.training_block3.exec-9097.GoNoGo3";;;;;;;;;;;;;;;;;;;;;;;;;"1249";"2014-07-21 11:23:43.931";"NST_correctLoc";"10";"0";"FINISHED";"LEFT";"success";"315";"0";"2014-07-21 11:23:42.681";"2";;;;;;;;;;;;;;;;;;;;;;;;;;;;;;;;;;;;;;;;;;;;;;;;;;;;;
"FB12AS";;;"Windows 7";"Rachel's Experiment (SCIAT)";"1.0";"1";"1";"1";"1";"1";"1";"2014-07-21 11:18:25.021";"2014-07-21 11:30:25.999";"1";"0";"1";"0";"0";"92";"91";"module.training_block3.exec-9097.GoNoGo3";;;;;;;;;;;;;;;;;;;;;;;;;"1249";"2014-07-21 11:23:46.463";"NST_correctLoc";"31";"0";"FINISHED";"LEFT";"success";"312";"0";"2014-07-21 11:23:45.213";"3";;;;;;;;;;;;;;;;;;;;;;;;;;;;;;;;;;;;;;;;;;;;;;;;;;;;;
"FB12AS";;;"Windows 7";"Rachel's Experiment (SCIAT)";"1.0";"1";"1";"1";"1";"1";"1";"2014-07-21 11:18:25.021";"2014-07-21 11:30:25.999";"1";"0";"1";"0";"0";"93";"92";"module.training_block3.exec-9097.GoNoGo3";;;;;;;;;;;;;;;;;;;;;;;;;"1249";"2014-07-21 11:23:48.994";"NST_correctLoc";"0";"0";"FINISHED";"LEFT";"success";"332";"0";"2014-07-21 11:23:47.744";"1";;;;;;;;;;;;;;;;;;;;;;;;;;;;;;;;;;;;;;;;;;;;;;;;;;;;;
"FB12AS";;;"Windows 7";"Rachel's Experiment (SCIAT)";"1.0";"1";"1";"1";"1";"1";"1";"2014-07-21 11:18:25.021";"2014-07-21 11:30:25.999";"1";"0";"1";"0";"0";"94";"93";"module.training_block3.exec-9097.GoNoGo3";;;;;;;;;;;;;;;;;;;;;;;;;"1250";"2014-07-21 11:23:51.526";"NST_correctLoc";"14";"0";"FINISHED";"LEFT";"success";"339";"0";"2014-07-21 11:23:50.276";"2";;;;;;;;;;;;;;;;;;;;;;;;;;;;;;;;;;;;;;;;;;;;;;;;;;;;;
"FB12AS";;;"Windows 7";"Rachel's Experiment (SCIAT)";"1.0";"1";"1";"1";"1";"1";"1";"2014-07-21 11:18:25.021";"2014-07-21 11:30:25.999";"1";"0";"1";"0";"0";"95";"94";"module.training_block3.exec-9097.GoNoGo3";;;;;;;;;;;;;;;;;;;;;;;;;"1249";"2014-07-21 11:23:54.057";"NST_correctLoc";"33";"1";"FINISHED";"RIGHT";"success";"346";"0";"2014-07-21 11:23:52.807";"3";;;;;;;;;;;;;;;;;;;;;;;;;;;;;;;;;;;;;;;;;;;;;;;;;;;;;
"FB12AS";;;"Windows 7";"Rachel's Experiment (SCIAT)";"1.0";"1";"1";"1";"1";"1";"1";"2014-07-21 11:18:25.021";"2014-07-21 11:30:25.999";"1";"0";"1";"0";"0";"96";"95";"module.training_block3.exec-9097.GoNoGo3";;;;;;;;;;;;;;;;;;;;;;;;;"1249";"2014-07-21 11:23:56.596";"NST_correctLoc";"17";"1";"FINISHED";"RIGHT";"success";"326";"0";"2014-07-21 11:23:55.346";"2";;;;;;;;;;;;;;;;;;;;;;;;;;;;;;;;;;;;;;;;;;;;;;;;;;;;;
"FB12AS";;;"Windows 7";"Rachel's Experiment (SCIAT)";"1.0";"1";"1";"1";"1";"1";"1";"2014-07-21 11:18:25.021";"2014-07-21 11:30:25.999";"1";"0";"1";"0";"0";"97";"96";"module.training_block3.exec-9097.GoNoGo3";;;;;;;;;;;;;;;;;;;;;;;;;"1250";"2014-07-21 11:23:59.127";"NST_correctLoc";"16";"0";"FINISHED";"LEFT";"success";"367";"0";"2014-07-21 11:23:57.877";"2";;;;;;;;;;;;;;;;;;;;;;;;;;;;;;;;;;;;;;;;;;;;;;;;;;;;;
"FB12AS";;;"Windows 7";"Rachel's Experiment (SCIAT)";"1.0";"1";"1";"1";"1";"1";"1";"2014-07-21 11:18:25.021";"2014-07-21 11:30:25.999";"1";"0";"1";"0";"0";"98";"97";"module.training_block3.exec-9097.GoNoGo3";;;;;;;;;;;;;;;;;;;;;;;;;"1249";"2014-07-21 11:24:01.658";"NST_correctLoc";"1";"0";"FINISHED";"LEFT";"success";"339";"0";"2014-07-21 11:24:00.408";"1";;;;;;;;;;;;;;;;;;;;;;;;;;;;;;;;;;;;;;;;;;;;;;;;;;;;;
"FB12AS";;;"Windows 7";"Rachel's Experiment (SCIAT)";"1.0";"1";"1";"1";"1";"1";"1";"2014-07-21 11:18:25.021";"2014-07-21 11:30:25.999";"1";"0";"1";"0";"0";"99";"98";"module.training_block3.exec-9097.GoNoGo3";;;;;;;;;;;;;;;;;;;;;;;;;"1249";"2014-07-21 11:24:04.189";"NST_correctLoc";"12";"0";"FINISHED";"LEFT";"success";"318";"0";"2014-07-21 11:24:02.939";"2";;;;;;;;;;;;;;;;;;;;;;;;;;;;;;;;;;;;;;;;;;;;;;;;;;;;;
"FB12AS";;;"Windows 7";"Rachel's Experiment (SCIAT)";"1.0";"1";"1";"1";"1";"1";"1";"2014-07-21 11:18:25.021";"2014-07-21 11:30:25.999";"1";"0";"1";"0";"0";"100";"99";"module.training_block3.exec-9097.GoNoGo3";;;;;;;;;;;;;;;;;;;;;;;;;"1249";"2014-07-21 11:24:06.720";"NST_correctLoc";"18";"0";"FINISHED";"LEFT";"success";"325";"0";"2014-07-21 11:24:05.470";"3";;;;;;;;;;;;;;;;;;;;;;;;;;;;;;;;;;;;;;;;;;;;;;;;;;;;;
"FB12AS";;;"Windows 7";"Rachel's Experiment (SCIAT)";"1.0";"1";"1";"1";"1";"1";"1";"2014-07-21 11:18:25.021";"2014-07-21 11:30:25.999";"1";"0";"1";"0";"0";"101";"100";"module.training_block3.exec-9097.GoNoGo3";;;;;;;;;;;;;;;;;;;;;;;;;"1249";"2014-07-21 11:24:09.249";"NST_correctLoc";"11";"0";"FINISHED";"LEFT";"success";"318";"0";"2014-07-21 11:24:07.999";"2";;;;;;;;;;;;;;;;;;;;;;;;;;;;;;;;;;;;;;;;;;;;;;;;;;;;;
"FB12AS";;;"Windows 7";"Rachel's Experiment (SCIAT)";"1.0";"1";"1";"1";"1";"1";"1";"2014-07-21 11:18:25.021";"2014-07-21 11:30:25.999";"1";"0";"1";"0";"0";"102";"101";"module.training_block3.exec-9097.GoNoGo3";;;;;;;;;;;;;;;;;;;;;;;;;"1249";"2014-07-21 11:24:11.779";"NST_correctLoc";"9";"0";"FINISHED";"LEFT";"success";"355";"0";"2014-07-21 11:24:10.529";"2";;;;;;;;;;;;;;;;;;;;;;;;;;;;;;;;;;;;;;;;;;;;;;;;;;;;;
"FB12AS";;;"Windows 7";"Rachel's Experiment (SCIAT)";"1.0";"1";"1";"1";"1";"1";"1";"2014-07-21 11:18:25.021";"2014-07-21 11:30:25.999";"1";"0";"1";"0";"0";"103";"102";"module.training_block3.exec-9097.GoNoGo3";;;;;;;;;;;;;;;;;;;;;;;;;"1249";"2014-07-21 11:24:14.309";"NST_correctLoc";"3";"1";"FINISHED";"RIGHT";"success";"326";"0";"2014-07-21 11:24:13.059";"1";;;;;;;;;;;;;;;;;;;;;;;;;;;;;;;;;;;;;;;;;;;;;;;;;;;;;
"FB12AS";;;"Windows 7";"Rachel's Experiment (SCIAT)";"1.0";"1";"1";"1";"1";"1";"1";"2014-07-21 11:18:25.021";"2014-07-21 11:30:25.999";"1";"0";"1";"0";"0";"104";"103";"module.training_block3.exec-9097.GoNoGo3";;;;;;;;;;;;;;;;;;;;;;;;;"1250";"2014-07-21 11:24:16.838";"NST_correctLoc";"35";"0";"FINISHED";"LEFT";"success";"328";"0";"2014-07-21 11:24:15.588";"3";;;;;;;;;;;;;;;;;;;;;;;;;;;;;;;;;;;;;;;;;;;;;;;;;;;;;
"FB12AS";;;"Windows 7";"Rachel's Experiment (SCIAT)";"1.0";"1";"1";"1";"1";"1";"1";"2014-07-21 11:18:25.021";"2014-07-21 11:30:25.999";"1";"0";"1";"0";"0";"105";"104";"module.training_block3.exec-9097.GoNoGo3";;;;;;;;;;;;;;;;;;;;;;;;;"1249";"2014-07-21 11:24:19.368";"NST_correctLoc";"7";"1";"FINISHED";"RIGHT";"success";"309";"0";"2014-07-21 11:24:18.118";"1";;;;;;;;;;;;;;;;;;;;;;;;;;;;;;;;;;;;;;;;;;;;;;;;;;;;;
"FB12AS";;;"Windows 7";"Rachel's Experiment (SCIAT)";"1.0";"1";"1";"1";"1";"1";"1";"2014-07-21 11:18:25.021";"2014-07-21 11:30:25.999";"1";"0";"1";"0";"0";"106";"105";"module.training_block3.exec-9097.GoNoGo3";;;;;;;;;;;;;;;;;;;;;;;;;"1249";"2014-07-21 11:24:21.898";"NST_correctLoc";"29";"0";"FINISHED";"LEFT";"success";"301";"0";"2014-07-21 11:24:20.648";"3";;;;;;;;;;;;;;;;;;;;;;;;;;;;;;;;;;;;;;;;;;;;;;;;;;;;;
"FB12AS";;;"Windows 7";"Rachel's Experiment (SCIAT)";"1.0";"1";"1";"1";"1";"1";"1";"2014-07-21 11:18:25.021";"2014-07-21 11:30:25.999";"1";"0";"1";"0";"0";"107";"106";"module.training_block3.exec-9097.GoNoGo3";;;;;;;;;;;;;;;;;;;;;;;;;"1250";"2014-07-21 11:24:24.427";"NST_correctLoc";"6";"1";"FINISHED";"RIGHT";"success";"394";"0";"2014-07-21 11:24:23.177";"1";;;;;;;;;;;;;;;;;;;;;;;;;;;;;;;;;;;;;;;;;;;;;;;;;;;;;
"FB12AS";;;"Windows 7";"Rachel's Experiment (SCIAT)";"1.0";"1";"1";"1";"1";"1";"1";"2014-07-21 11:18:25.021";"2014-07-21 11:30:25.999";"1";"0";"1";"0";"0";"108";"107";"module.training_block3.exec-9097.GoNoGo3";;;;;;;;;;;;;;;;;;;;;;;;;"1249";"2014-07-21 11:24:26.956";"NST_correctLoc";"19";"0";"FINISHED";"LEFT";"success";"315";"0";"2014-07-21 11:24:25.706";"3";;;;;;;;;;;;;;;;;;;;;;;;;;;;;;;;;;;;;;;;;;;;;;;;;;;;;
"FB12AS";;;"Windows 7";"Rachel's Experiment (SCIAT)";"1.0";"1";"1";"1";"1";"1";"1";"2014-07-21 11:18:25.021";"2014-07-21 11:30:25.999";"1";"0";"1";"0";"0";"109";"108";"module.training_block3.exec-9097.GoNoGo3";;;;;;;;;;;;;;;;;;;;;;;;;"1250";"2014-07-21 11:24:29.486";"NST_correctLoc";"8";"1";"FINISHED";"RIGHT";"success";"385";"0";"2014-07-21 11:24:28.236";"1";;;;;;;;;;;;;;;;;;;;;;;;;;;;;;;;;;;;;;;;;;;;;;;;;;;;;
"FB12AS";;;"Windows 7";"Rachel's Experiment (SCIAT)";"1.0";"1";"1";"1";"1";"1";"1";"2014-07-21 11:18:25.021";"2014-07-21 11:30:25.999";"1";"0";"1";"0";"0";"110";"109";"module.training_block3.exec-9097.GoNoGo3";;;;;;;;;;;;;;;;;;;;;;;;;"1249";"2014-07-21 11:24:32.025";"NST_correctLoc";"21";"1";"FINISHED";"RIGHT";"success";"455";"0";"2014-07-21 11:24:30.775";"3";;;;;;;;;;;;;;;;;;;;;;;;;;;;;;;;;;;;;;;;;;;;;;;;;;;;;
"FB12AS";;;"Windows 7";"Rachel's Experiment (SCIAT)";"1.0";"1";"1";"1";"1";"1";"1";"2014-07-21 11:18:25.021";"2014-07-21 11:30:25.999";"1";"0";"1";"0";"0";"111";"110";"module.training_block3.exec-9097.GoNoGo3";;;;;;;;;;;;;;;;;;;;;;;;;"1250";"2014-07-21 11:24:34.555";"NST_correctLoc";"23";"1";"FINISHED";"RIGHT";"success";"327";"0";"2014-07-21 11:24:33.305";"3";;;;;;;;;;;;;;;;;;;;;;;;;;;;;;;;;;;;;;;;;;;;;;;;;;;;;
"FB12AS";;;"Windows 7";"Rachel's Experiment (SCIAT)";"1.0";"1";"1";"1";"1";"1";"1";"2014-07-21 11:18:25.021";"2014-07-21 11:30:25.999";"1";"0";"1";"0";"0";"112";"111";"module.training_block3.exec-9097.GoNoGo3";;;;;;;;;;;;;;;;;;;;;;;;;"1249";"2014-07-21 11:24:37.085";"NST_correctLoc";"13";"0";"FINISHED";"LEFT";"success";"356";"0";"2014-07-21 11:24:35.835";"2";;;;;;;;;;;;;;;;;;;;;;;;;;;;;;;;;;;;;;;;;;;;;;;;;;;;;
"FB12AS";;;"Windows 7";"Rachel's Experiment (SCIAT)";"1.0";"1";"1";"1";"1";"1";"1";"2014-07-21 11:18:25.021";"2014-07-21 11:30:25.999";"1";"0";"1";"0";"0";"113";"112";"module.training_block3.exec-9097.GoNoGo3";;;;;;;;;;;;;;;;;;;;;;;;;"1250";"2014-07-21 11:24:39.620";"NST_correctLoc";"26";"1";"FINISHED";"RIGHT";"success";"333";"0";"2014-07-21 11:24:38.370";"3";;;;;;;;;;;;;;;;;;;;;;;;;;;;;;;;;;;;;;;;;;;;;;;;;;;;;
"FB12AS";;;"Windows 7";"Rachel's Experiment (SCIAT)";"1.0";"1";"1";"1";"1";"1";"1";"2014-07-21 11:18:25.021";"2014-07-21 11:30:25.999";"1";"0";"1";"0";"0";"114";"113";"module.training_block3.exec-9097.GoNoGo3";;;;;;;;;;;;;;;;;;;;;;;;;"1249";"2014-07-21 11:24:42.150";"NST_correctLoc";"15";"1";"FINISHED";"RIGHT";"success";"332";"0";"2014-07-21 11:24:40.900";"2";;;;;;;;;;;;;;;;;;;;;;;;;;;;;;;;;;;;;;;;;;;;;;;;;;;;;
"FB12AS";;;"Windows 7";"Rachel's Experiment (SCIAT)";"1.0";"1";"1";"1";"1";"1";"1";"2014-07-21 11:18:25.021";"2014-07-21 11:30:25.999";"1";"0";"1";"0";"0";"115";"114";"module.training_block3.exec-9097.GoNoGo3";;;;;;;;;;;;;;;;;;;;;;;;;"1250";"2014-07-21 11:24:44.679";"NST_correctLoc";"24";"1";"FINISHED";"RIGHT";"success";"404";"0";"2014-07-21 11:24:43.429";"3";;;;;;;;;;;;;;;;;;;;;;;;;;;;;;;;;;;;;;;;;;;;;;;;;;;;;
"FB12AS";;;"Windows 7";"Rachel's Experiment (SCIAT)";"1.0";"1";"1";"1";"1";"1";"1";"2014-07-21 11:18:25.021";"2014-07-21 11:30:25.999";"1";"0";"1";"0";"0";"116";"115";"module.training_block3.exec-9097.GoNoGo3";;;;;;;;;;;;;;;;;;;;;;;;;"1250";"2014-07-21 11:24:47.208";"NST_correctLoc";"27";"1";"FINISHED";"RIGHT";"success";"375";"0";"2014-07-21 11:24:45.958";"3";;;;;;;;;;;;;;;;;;;;;;;;;;;;;;;;;;;;;;;;;;;;;;;;;;;;;
"FB12AS";;;"Windows 7";"Rachel's Experiment (SCIAT)";"1.0";"1";"1";"1";"1";"1";"1";"2014-07-21 11:18:25.021";"2014-07-21 11:30:25.999";"1";"0";"1";"0";"0";"117";"116";"module.training_block3.exec-9097.GoNoGo3";;;;;;;;;;;;;;;;;;;;;;;;;"1249";"2014-07-21 11:24:49.737";"NST_correctLoc";"5";"0";"FINISHED";"LEFT";"success";"398";"0";"2014-07-21 11:24:48.487";"1";;;;;;;;;;;;;;;;;;;;;;;;;;;;;;;;;;;;;;;;;;;;;;;;;;;;;
"FB12AS";;;"Windows 7";"Rachel's Experiment (SCIAT)";"1.0";"1";"1";"1";"1";"1";"1";"2014-07-21 11:18:25.021";"2014-07-21 11:30:25.999";"1";"0";"1";"0";"0";"118";"117";"module.training_block3.exec-9097.GoNoGo3";;;;;;;;;;;;;;;;;;;;;;;;;"1249";"2014-07-21 11:24:52.266";"NST_correctLoc";"2";"0";"FINISHED";"LEFT";"success";"618";"0";"2014-07-21 11:24:51.016";"1";;;;;;;;;;;;;;;;;;;;;;;;;;;;;;;;;;;;;;;;;;;;;;;;;;;;;
"FB12AS";;;"Windows 7";"Rachel's Experiment (SCIAT)";"1.0";"1";"1";"1";"1";"1";"1";"2014-07-21 11:18:25.021";"2014-07-21 11:30:25.999";"1";"0";"1";"0";"0";"119";"118";"module.training_block3.exec-9097.GoNoGo3";;;;;;;;;;;;;;;;;;;;;;;;;"1250";"2014-07-21 11:24:54.794";"NST_correctLoc";"20";"0";"FINISHED";"LEFT";"success";"403";"0";"2014-07-21 11:24:53.544";"3";;;;;;;;;;;;;;;;;;;;;;;;;;;;;;;;;;;;;;;;;;;;;;;;;;;;;
"FB12AS";;;"Windows 7";"Rachel's Experiment (SCIAT)";"1.0";"1";"1";"1";"1";"1";"1";"2014-07-21 11:18:25.021";"2014-07-21 11:30:25.999";"1";"0";"1";"0";"0";"120";"119";"module.training_block3.exec-9097.GoNoGo3";;;;;;;;;;;;;;;;;;;;;;;;;"1249";"2014-07-21 11:24:57.322";"NST_correctLoc";"30";"0";"FINISHED";"LEFT";"success";"329";"0";"2014-07-21 11:24:56.072";"3";;;;;;;;;;;;;;;;;;;;;;;;;;;;;;;;;;;;;;;;;;;;;;;;;;;;;
"FB12AS";;;"Windows 7";"Rachel's Experiment (SCIAT)";"1.0";"1";"1";"1";"1";"1";"1";"2014-07-21 11:18:25.021";"2014-07-21 11:30:25.999";"1";"0";"1";"0";"0";"121";"120";"module.training_block3.exec-9097.GoNoGo3";;;;;;;;;;;;;;;;;;;;;;;;;"1250";"2014-07-21 11:24:59.849";"NST_correctLoc";"32";"0";"FINISHED";"LEFT";"success";"342";"0";"2014-07-21 11:24:58.599";"3";;;;;;;;;;;;;;;;;;;;;;;;;;;;;;;;;;;;;;;;;;;;;;;;;;;;;
"FB12AS";;;"Windows 7";"Rachel's Experiment (SCIAT)";"1.0";"1";"1";"1";"1";"1";"1";"2014-07-21 11:18:25.021";"2014-07-21 11:30:25.999";"1";"0";"1";"0";"0";"122";"121";"module.training_block3.exec-9097.GoNoGo3";;;;;;;;;;;;;;;;;;;;;;;;;"1250";"2014-07-21 11:25:02.377";"NST_correctLoc";"34";"0";"FINISHED";"LEFT";"success";"333";"0";"2014-07-21 11:25:01.127";"3";;;;;;;;;;;;;;;;;;;;;;;;;;;;;;;;;;;;;;;;;;;;;;;;;;;;;
"FB12AS";;;"Windows 7";"Rachel's Experiment (SCIAT)";"1.0";"1";"1";"1";"1";"1";"1";"2014-07-21 11:18:25.021";"2014-07-21 11:30:25.999";"1";"0";"1";"0";"0";"123";"122";"module.training_block3.exec-9097.GoNoGo3";;;;;;;;;;;;;;;;;;;;;;;;;"1250";"2014-07-21 11:25:04.915";"NST_correctLoc";"25";"1";"FINISHED";"RIGHT";"success";"337";"0";"2014-07-21 11:25:03.664";"3";;;;;;;;;;;;;;;;;;;;;;;;;;;;;;;;;;;;;;;;;;;;;;;;;;;;;
"FB12AS";;;"Windows 7";"Rachel's Experiment (SCIAT)";"1.0";"1";"1";"1";"1";"1";"1";"2014-07-21 11:18:25.021";"2014-07-21 11:30:25.999";"1";"0";"1";"0";"0";"124";"123";"module.training_block4.exec-3210.GoNoGo4";;;;;;;;;;;;;;;;;;;;;;;;;;;;;;;;;;;;;"1249";"2014-07-21 11:25:14.893";"NST_correctLoc";"35";"0";"FINISHED";"LEFT";"success";"354";"0";"2014-07-21 11:25:13.643";"3";;;;;;;;;;;;;;;;;;;;;;;;;;;;;;;;;;;;;;;;;
"FB12AS";;;"Windows 7";"Rachel's Experiment (SCIAT)";"1.0";"1";"1";"1";"1";"1";"1";"2014-07-21 11:18:25.021";"2014-07-21 11:30:25.999";"1";"0";"1";"0";"0";"125";"124";"module.training_block4.exec-3210.GoNoGo4";;;;;;;;;;;;;;;;;;;;;;;;;;;;;;;;;;;;;"1250";"2014-07-21 11:25:17.422";"NST_correctLoc";"21";"0";"FINISHED";"LEFT";"success";"267";"0";"2014-07-21 11:25:16.172";"3";;;;;;;;;;;;;;;;;;;;;;;;;;;;;;;;;;;;;;;;;
"FB12AS";;;"Windows 7";"Rachel's Experiment (SCIAT)";"1.0";"1";"1";"1";"1";"1";"1";"2014-07-21 11:18:25.021";"2014-07-21 11:30:25.999";"1";"0";"1";"0";"0";"126";"125";"module.training_block4.exec-3210.GoNoGo4";;;;;;;;;;;;;;;;;;;;;;;;;;;;;;;;;;;;;"1249";"2014-07-21 11:25:19.949";"NST_correctLoc";"0";"0";"FINISHED";"LEFT";"success";"323";"0";"2014-07-21 11:25:18.699";"1";;;;;;;;;;;;;;;;;;;;;;;;;;;;;;;;;;;;;;;;;
"FB12AS";;;"Windows 7";"Rachel's Experiment (SCIAT)";"1.0";"1";"1";"1";"1";"1";"1";"2014-07-21 11:18:25.021";"2014-07-21 11:30:25.999";"1";"0";"1";"0";"0";"127";"126";"module.training_block4.exec-3210.GoNoGo4";;;;;;;;;;;;;;;;;;;;;;;;;;;;;;;;;;;;;"1249";"2014-07-21 11:25:22.478";"NST_correctLoc";"32";"1";"FINISHED";"RIGHT";"success";"347";"0";"2014-07-21 11:25:21.227";"3";;;;;;;;;;;;;;;;;;;;;;;;;;;;;;;;;;;;;;;;;
"FB12AS";;;"Windows 7";"Rachel's Experiment (SCIAT)";"1.0";"1";"1";"1";"1";"1";"1";"2014-07-21 11:18:25.021";"2014-07-21 11:30:25.999";"1";"0";"1";"0";"0";"128";"127";"module.training_block4.exec-3210.GoNoGo4";;;;;;;;;;;;;;;;;;;;;;;;;;;;;;;;;;;;;"1250";"2014-07-21 11:25:25.015";"NST_correctLoc";"24";"1";"FINISHED";"RIGHT";"success";"353";"0";"2014-07-21 11:25:23.765";"3";;;;;;;;;;;;;;;;;;;;;;;;;;;;;;;;;;;;;;;;;
"FB12AS";;;"Windows 7";"Rachel's Experiment (SCIAT)";"1.0";"1";"1";"1";"1";"1";"1";"2014-07-21 11:18:25.021";"2014-07-21 11:30:25.999";"1";"0";"1";"0";"0";"129";"128";"module.training_block4.exec-3210.GoNoGo4";;;;;;;;;;;;;;;;;;;;;;;;;;;;;;;;;;;;;"1249";"2014-07-21 11:25:27.544";"NST_correctLoc";"22";"1";"FINISHED";"RIGHT";"success";"314";"0";"2014-07-21 11:25:26.294";"3";;;;;;;;;;;;;;;;;;;;;;;;;;;;;;;;;;;;;;;;;
"FB12AS";;;"Windows 7";"Rachel's Experiment (SCIAT)";"1.0";"1";"1";"1";"1";"1";"1";"2014-07-21 11:18:25.021";"2014-07-21 11:30:25.999";"1";"0";"1";"0";"0";"130";"129";"module.training_block4.exec-3210.GoNoGo4";;;;;;;;;;;;;;;;;;;;;;;;;;;;;;;;;;;;;"1249";"2014-07-21 11:25:30.070";"NST_correctLoc";"30";"0";"FINISHED";"LEFT";"success";"329";"0";"2014-07-21 11:25:28.820";"3";;;;;;;;;;;;;;;;;;;;;;;;;;;;;;;;;;;;;;;;;
"FB12AS";;;"Windows 7";"Rachel's Experiment (SCIAT)";"1.0";"1";"1";"1";"1";"1";"1";"2014-07-21 11:18:25.021";"2014-07-21 11:30:25.999";"1";"0";"1";"0";"0";"131";"130";"module.training_block4.exec-3210.GoNoGo4";;;;;;;;;;;;;;;;;;;;;;;;;;;;;;;;;;;;;"1249";"2014-07-21 11:25:32.599";"NST_correctLoc";"4";"0";"FINISHED";"LEFT";"success";"400";"0";"2014-07-21 11:25:31.349";"1";;;;;;;;;;;;;;;;;;;;;;;;;;;;;;;;;;;;;;;;;
"FB12AS";;;"Windows 7";"Rachel's Experiment (SCIAT)";"1.0";"1";"1";"1";"1";"1";"1";"2014-07-21 11:18:25.021";"2014-07-21 11:30:25.999";"1";"0";"1";"0";"0";"132";"131";"module.training_block4.exec-3210.GoNoGo4";;;;;;;;;;;;;;;;;;;;;;;;;;;;;;;;;;;;;"1249";"2014-07-21 11:25:35.127";"NST_correctLoc";"10";"1";"FINISHED";"RIGHT";"success";"333";"0";"2014-07-21 11:25:33.877";"2";;;;;;;;;;;;;;;;;;;;;;;;;;;;;;;;;;;;;;;;;
"FB12AS";;;"Windows 7";"Rachel's Experiment (SCIAT)";"1.0";"1";"1";"1";"1";"1";"1";"2014-07-21 11:18:25.021";"2014-07-21 11:30:25.999";"1";"0";"1";"0";"0";"133";"132";"module.training_block4.exec-3210.GoNoGo4";;;;;;;;;;;;;;;;;;;;;;;;;;;;;;;;;;;;;"1249";"2014-07-21 11:25:37.654";"NST_correctLoc";"13";"1";"FINISHED";"RIGHT";"success";"346";"0";"2014-07-21 11:25:36.404";"2";;;;;;;;;;;;;;;;;;;;;;;;;;;;;;;;;;;;;;;;;
"FB12AS";;;"Windows 7";"Rachel's Experiment (SCIAT)";"1.0";"1";"1";"1";"1";"1";"1";"2014-07-21 11:18:25.021";"2014-07-21 11:30:25.999";"1";"0";"1";"0";"0";"134";"133";"module.training_block4.exec-3210.GoNoGo4";;;;;;;;;;;;;;;;;;;;;;;;;;;;;;;;;;;;;"1249";"2014-07-21 11:25:40.183";"NST_correctLoc";"14";"0";"FINISHED";"LEFT";"success";"309";"0";"2014-07-21 11:25:38.932";"2";;;;;;;;;;;;;;;;;;;;;;;;;;;;;;;;;;;;;;;;;
"FB12AS";;;"Windows 7";"Rachel's Experiment (SCIAT)";"1.0";"1";"1";"1";"1";"1";"1";"2014-07-21 11:18:25.021";"2014-07-21 11:30:25.999";"1";"0";"1";"0";"0";"135";"134";"module.training_block4.exec-3210.GoNoGo4";;;;;;;;;;;;;;;;;;;;;;;;;;;;;;;;;;;;;"1249";"2014-07-21 11:25:42.710";"NST_correctLoc";"3";"0";"FINISHED";"LEFT";"success";"355";"0";"2014-07-21 11:25:41.460";"1";;;;;;;;;;;;;;;;;;;;;;;;;;;;;;;;;;;;;;;;;
"FB12AS";;;"Windows 7";"Rachel's Experiment (SCIAT)";"1.0";"1";"1";"1";"1";"1";"1";"2014-07-21 11:18:25.021";"2014-07-21 11:30:25.999";"1";"0";"1";"0";"0";"136";"135";"module.training_block4.exec-3210.GoNoGo4";;;;;;;;;;;;;;;;;;;;;;;;;;;;;;;;;;;;;"1250";"2014-07-21 11:25:45.241";"NST_correctLoc";"1";"1";"FINISHED";"RIGHT";"success";"376";"0";"2014-07-21 11:25:43.991";"1";;;;;;;;;;;;;;;;;;;;;;;;;;;;;;;;;;;;;;;;;
"FB12AS";;;"Windows 7";"Rachel's Experiment (SCIAT)";"1.0";"1";"1";"1";"1";"1";"1";"2014-07-21 11:18:25.021";"2014-07-21 11:30:25.999";"1";"0";"1";"0";"0";"137";"136";"module.training_block4.exec-3210.GoNoGo4";;;;;;;;;;;;;;;;;;;;;;;;;;;;;;;;;;;;;"1250";"2014-07-21 11:25:47.768";"NST_correctLoc";"7";"0";"FINISHED";"LEFT";"success";"303";"0";"2014-07-21 11:25:46.518";"1";;;;;;;;;;;;;;;;;;;;;;;;;;;;;;;;;;;;;;;;;
"FB12AS";;;"Windows 7";"Rachel's Experiment (SCIAT)";"1.0";"1";"1";"1";"1";"1";"1";"2014-07-21 11:18:25.021";"2014-07-21 11:30:25.999";"1";"0";"1";"0";"0";"138";"137";"module.training_block4.exec-3210.GoNoGo4";;;;;;;;;;;;;;;;;;;;;;;;;;;;;;;;;;;;;"1249";"2014-07-21 11:25:50.295";"NST_correctLoc";"26";"0";"FINISHED";"LEFT";"success";"348";"0";"2014-07-21 11:25:49.045";"3";;;;;;;;;;;;;;;;;;;;;;;;;;;;;;;;;;;;;;;;;
"FB12AS";;;"Windows 7";"Rachel's Experiment (SCIAT)";"1.0";"1";"1";"1";"1";"1";"1";"2014-07-21 11:18:25.021";"2014-07-21 11:30:25.999";"1";"0";"1";"0";"0";"139";"138";"module.training_block4.exec-3210.GoNoGo4";;;;;;;;;;;;;;;;;;;;;;;;;;;;;;;;;;;;;"1249";"2014-07-21 11:25:52.824";"NST_correctLoc";"27";"0";"FINISHED";"LEFT";"success";"351";"0";"2014-07-21 11:25:51.574";"3";;;;;;;;;;;;;;;;;;;;;;;;;;;;;;;;;;;;;;;;;
"FB12AS";;;"Windows 7";"Rachel's Experiment (SCIAT)";"1.0";"1";"1";"1";"1";"1";"1";"2014-07-21 11:18:25.021";"2014-07-21 11:30:25.999";"1";"0";"1";"0";"0";"140";"139";"module.training_block4.exec-3210.GoNoGo4";;;;;;;;;;;;;;;;;;;;;;;;;;;;;;;;;;;;;"1249";"2014-07-21 11:25:55.352";"NST_correctLoc";"20";"1";"FINISHED";"RIGHT";"success";"444";"0";"2014-07-21 11:25:54.102";"3";;;;;;;;;;;;;;;;;;;;;;;;;;;;;;;;;;;;;;;;;
"FB12AS";;;"Windows 7";"Rachel's Experiment (SCIAT)";"1.0";"1";"1";"1";"1";"1";"1";"2014-07-21 11:18:25.021";"2014-07-21 11:30:25.999";"1";"0";"1";"0";"0";"141";"140";"module.training_block4.exec-3210.GoNoGo4";;;;;;;;;;;;;;;;;;;;;;;;;;;;;;;;;;;;;"1249";"2014-07-21 11:25:57.882";"NST_correctLoc";"5";"0";"FINISHED";"LEFT";"success";"329";"0";"2014-07-21 11:25:56.631";"1";;;;;;;;;;;;;;;;;;;;;;;;;;;;;;;;;;;;;;;;;
"FB12AS";;;"Windows 7";"Rachel's Experiment (SCIAT)";"1.0";"1";"1";"1";"1";"1";"1";"2014-07-21 11:18:25.021";"2014-07-21 11:30:25.999";"1";"0";"1";"0";"0";"142";"141";"module.training_block4.exec-3210.GoNoGo4";;;;;;;;;;;;;;;;;;;;;;;;;;;;;;;;;;;;;"1250";"2014-07-21 11:26:00.410";"NST_correctLoc";"28";"0";"FINISHED";"LEFT";"success";"282";"0";"2014-07-21 11:25:59.160";"3";;;;;;;;;;;;;;;;;;;;;;;;;;;;;;;;;;;;;;;;;
"FB12AS";;;"Windows 7";"Rachel's Experiment (SCIAT)";"1.0";"1";"1";"1";"1";"1";"1";"2014-07-21 11:18:25.021";"2014-07-21 11:30:25.999";"1";"0";"1";"0";"0";"143";"142";"module.training_block4.exec-3210.GoNoGo4";;;;;;;;;;;;;;;;;;;;;;;;;;;;;;;;;;;;;"1249";"2014-07-21 11:26:02.939";"NST_correctLoc";"17";"0";"FINISHED";"LEFT";"success";"324";"0";"2014-07-21 11:26:01.689";"2";;;;;;;;;;;;;;;;;;;;;;;;;;;;;;;;;;;;;;;;;
"FB12AS";;;"Windows 7";"Rachel's Experiment (SCIAT)";"1.0";"1";"1";"1";"1";"1";"1";"2014-07-21 11:18:25.021";"2014-07-21 11:30:25.999";"1";"0";"1";"0";"0";"144";"143";"module.training_block4.exec-3210.GoNoGo4";;;;;;;;;;;;;;;;;;;;;;;;;;;;;;;;;;;;;"1250";"2014-07-21 11:26:05.467";"NST_correctLoc";"19";"0";"FINISHED";"LEFT";"success";"309";"0";"2014-07-21 11:26:04.217";"3";;;;;;;;;;;;;;;;;;;;;;;;;;;;;;;;;;;;;;;;;
"FB12AS";;;"Windows 7";"Rachel's Experiment (SCIAT)";"1.0";"1";"1";"1";"1";"1";"1";"2014-07-21 11:18:25.021";"2014-07-21 11:30:25.999";"1";"0";"1";"0";"0";"145";"144";"module.training_block4.exec-3210.GoNoGo4";;;;;;;;;;;;;;;;;;;;;;;;;;;;;;;;;;;;;"1249";"2014-07-21 11:26:08.001";"NST_correctLoc";"34";"0";"FINISHED";"LEFT";"success";"316";"0";"2014-07-21 11:26:06.751";"3";;;;;;;;;;;;;;;;;;;;;;;;;;;;;;;;;;;;;;;;;
"FB12AS";;;"Windows 7";"Rachel's Experiment (SCIAT)";"1.0";"1";"1";"1";"1";"1";"1";"2014-07-21 11:18:25.021";"2014-07-21 11:30:25.999";"1";"0";"1";"0";"0";"146";"145";"module.training_block4.exec-3210.GoNoGo4";;;;;;;;;;;;;;;;;;;;;;;;;;;;;;;;;;;;;"1249";"2014-07-21 11:26:10.529";"NST_correctLoc";"25";"0";"FINISHED";"LEFT";"success";"301";"0";"2014-07-21 11:26:09.279";"3";;;;;;;;;;;;;;;;;;;;;;;;;;;;;;;;;;;;;;;;;
"FB12AS";;;"Windows 7";"Rachel's Experiment (SCIAT)";"1.0";"1";"1";"1";"1";"1";"1";"2014-07-21 11:18:25.021";"2014-07-21 11:30:25.999";"1";"0";"1";"0";"0";"147";"146";"module.training_block4.exec-3210.GoNoGo4";;;;;;;;;;;;;;;;;;;;;;;;;;;;;;;;;;;;;"1249";"2014-07-21 11:26:13.057";"NST_correctLoc";"9";"0";"FINISHED";"LEFT";"success";"317";"0";"2014-07-21 11:26:11.807";"2";;;;;;;;;;;;;;;;;;;;;;;;;;;;;;;;;;;;;;;;;
"FB12AS";;;"Windows 7";"Rachel's Experiment (SCIAT)";"1.0";"1";"1";"1";"1";"1";"1";"2014-07-21 11:18:25.021";"2014-07-21 11:30:25.999";"1";"0";"1";"0";"0";"148";"147";"module.training_block4.exec-3210.GoNoGo4";;;;;;;;;;;;;;;;;;;;;;;;;;;;;;;;;;;;;"1249";"2014-07-21 11:26:15.587";"NST_correctLoc";"11";"0";"FINISHED";"LEFT";"success";"271";"0";"2014-07-21 11:26:14.336";"2";;;;;;;;;;;;;;;;;;;;;;;;;;;;;;;;;;;;;;;;;
"FB12AS";;;"Windows 7";"Rachel's Experiment (SCIAT)";"1.0";"1";"1";"1";"1";"1";"1";"2014-07-21 11:18:25.021";"2014-07-21 11:30:25.999";"1";"0";"1";"0";"0";"149";"148";"module.training_block4.exec-3210.GoNoGo4";;;;;;;;;;;;;;;;;;;;;;;;;;;;;;;;;;;;;"1249";"2014-07-21 11:26:18.115";"NST_correctLoc";"33";"0";"FINISHED";"LEFT";"success";"304";"0";"2014-07-21 11:26:16.865";"3";;;;;;;;;;;;;;;;;;;;;;;;;;;;;;;;;;;;;;;;;
"FB12AS";;;"Windows 7";"Rachel's Experiment (SCIAT)";"1.0";"1";"1";"1";"1";"1";"1";"2014-07-21 11:18:25.021";"2014-07-21 11:30:25.999";"1";"0";"1";"0";"0";"150";"149";"module.training_block4.exec-3210.GoNoGo4";;;;;;;;;;;;;;;;;;;;;;;;;;;;;;;;;;;;;"1249";"2014-07-21 11:26:20.643";"NST_correctLoc";"23";"1";"FINISHED";"RIGHT";"success";"368";"0";"2014-07-21 11:26:19.393";"3";;;;;;;;;;;;;;;;;;;;;;;;;;;;;;;;;;;;;;;;;
"FB12AS";;;"Windows 7";"Rachel's Experiment (SCIAT)";"1.0";"1";"1";"1";"1";"1";"1";"2014-07-21 11:18:25.021";"2014-07-21 11:30:25.999";"1";"0";"1";"0";"0";"151";"150";"module.training_block4.exec-3210.GoNoGo4";;;;;;;;;;;;;;;;;;;;;;;;;;;;;;;;;;;;;"1249";"2014-07-21 11:26:23.172";"NST_correctLoc";"16";"1";"FINISHED";"RIGHT";"success";"381";"0";"2014-07-21 11:26:21.922";"2";;;;;;;;;;;;;;;;;;;;;;;;;;;;;;;;;;;;;;;;;
"FB12AS";;;"Windows 7";"Rachel's Experiment (SCIAT)";"1.0";"1";"1";"1";"1";"1";"1";"2014-07-21 11:18:25.021";"2014-07-21 11:30:25.999";"1";"0";"1";"0";"0";"152";"151";"module.training_block4.exec-3210.GoNoGo4";;;;;;;;;;;;;;;;;;;;;;;;;;;;;;;;;;;;;"1249";"2014-07-21 11:26:25.700";"NST_correctLoc";"8";"1";"FINISHED";"RIGHT";"success";"304";"0";"2014-07-21 11:26:24.450";"1";;;;;;;;;;;;;;;;;;;;;;;;;;;;;;;;;;;;;;;;;
"FB12AS";;;"Windows 7";"Rachel's Experiment (SCIAT)";"1.0";"1";"1";"1";"1";"1";"1";"2014-07-21 11:18:25.021";"2014-07-21 11:30:25.999";"1";"0";"1";"0";"0";"153";"152";"module.training_block4.exec-3210.GoNoGo4";;;;;;;;;;;;;;;;;;;;;;;;;;;;;;;;;;;;;"1249";"2014-07-21 11:26:28.229";"NST_correctLoc";"15";"0";"FINISHED";"LEFT";"success";"277";"0";"2014-07-21 11:26:26.979";"2";;;;;;;;;;;;;;;;;;;;;;;;;;;;;;;;;;;;;;;;;
"FB12AS";;;"Windows 7";"Rachel's Experiment (SCIAT)";"1.0";"1";"1";"1";"1";"1";"1";"2014-07-21 11:18:25.021";"2014-07-21 11:30:25.999";"1";"0";"1";"0";"0";"154";"153";"module.training_block4.exec-3210.GoNoGo4";;;;;;;;;;;;;;;;;;;;;;;;;;;;;;;;;;;;;"1250";"2014-07-21 11:26:30.757";"NST_correctLoc";"2";"0";"FINISHED";"LEFT";"success";"314";"0";"2014-07-21 11:26:29.507";"1";;;;;;;;;;;;;;;;;;;;;;;;;;;;;;;;;;;;;;;;;
"FB12AS";;;"Windows 7";"Rachel's Experiment (SCIAT)";"1.0";"1";"1";"1";"1";"1";"1";"2014-07-21 11:18:25.021";"2014-07-21 11:30:25.999";"1";"0";"1";"0";"0";"155";"154";"module.training_block4.exec-3210.GoNoGo4";;;;;;;;;;;;;;;;;;;;;;;;;;;;;;;;;;;;;"1249";"2014-07-21 11:26:33.286";"NST_correctLoc";"12";"0";"FINISHED";"LEFT";"success";"307";"0";"2014-07-21 11:26:32.035";"2";;;;;;;;;;;;;;;;;;;;;;;;;;;;;;;;;;;;;;;;;
"FB12AS";;;"Windows 7";"Rachel's Experiment (SCIAT)";"1.0";"1";"1";"1";"1";"1";"1";"2014-07-21 11:18:25.021";"2014-07-21 11:30:25.999";"1";"0";"1";"0";"0";"156";"155";"module.training_block4.exec-3210.GoNoGo4";;;;;;;;;;;;;;;;;;;;;;;;;;;;;;;;;;;;;"1249";"2014-07-21 11:26:35.814";"NST_correctLoc";"31";"0";"FINISHED";"LEFT";"success";"292";"0";"2014-07-21 11:26:34.564";"3";;;;;;;;;;;;;;;;;;;;;;;;;;;;;;;;;;;;;;;;;
"FB12AS";;;"Windows 7";"Rachel's Experiment (SCIAT)";"1.0";"1";"1";"1";"1";"1";"1";"2014-07-21 11:18:25.021";"2014-07-21 11:30:25.999";"1";"0";"1";"0";"0";"157";"156";"module.training_block4.exec-3210.GoNoGo4";;;;;;;;;;;;;;;;;;;;;;;;;;;;;;;;;;;;;"1249";"2014-07-21 11:26:38.342";"NST_correctLoc";"29";"0";"FINISHED";"LEFT";"success";"256";"0";"2014-07-21 11:26:37.092";"3";;;;;;;;;;;;;;;;;;;;;;;;;;;;;;;;;;;;;;;;;
"FB12AS";;;"Windows 7";"Rachel's Experiment (SCIAT)";"1.0";"1";"1";"1";"1";"1";"1";"2014-07-21 11:18:25.021";"2014-07-21 11:30:25.999";"1";"0";"1";"0";"0";"158";"157";"module.training_block4.exec-3210.GoNoGo4";;;;;;;;;;;;;;;;;;;;;;;;;;;;;;;;;;;;;"1249";"2014-07-21 11:26:40.871";"NST_correctLoc";"6";"1";"FINISHED";"RIGHT";"success";"319";"0";"2014-07-21 11:26:39.621";"1";;;;;;;;;;;;;;;;;;;;;;;;;;;;;;;;;;;;;;;;;
"FB12AS";;;"Windows 7";"Rachel's Experiment (SCIAT)";"1.0";"1";"1";"1";"1";"1";"1";"2014-07-21 11:18:25.021";"2014-07-21 11:30:25.999";"1";"0";"1";"0";"0";"159";"158";"module.training_block4.exec-3210.GoNoGo4";;;;;;;;;;;;;;;;;;;;;;;;;;;;;;;;;;;;;"1249";"2014-07-21 11:26:43.399";"NST_correctLoc";"18";"0";"FINISHED";"LEFT";"success";"293";"0";"2014-07-21 11:26:42.149";"3";;;;;;;;;;;;;;;;;;;;;;;;;;;;;;;;;;;;;;;;;
"FB12AS";;;"Windows 7";"Rachel's Experiment (SCIAT)";"1.0";"1";"1";"1";"1";"1";"1";"2014-07-21 11:18:25.021";"2014-07-21 11:30:25.999";"1";"0";"1";"0";"0";"160";"159";"module.IAT_practice1.exec-9839.IAT_Practice1";;;;;;;;;;;;;;;;;;;;;;;;;;;;;;;;;;;;;;;;;;;;;;;;;;;;;;;;;;;;;;;;;;;;;;;;;;;;;;;;"3020";"2014-07-21 11:27:20.322";"FINISHED";"NONE";"failure";"0";"2014-07-21 11:27:17.302";"IAT_UPpractice.csv";"2";"undefined"
"FB12AS";;;"Windows 7";"Rachel's Experiment (SCIAT)";"1.0";"1";"1";"1";"1";"1";"1";"2014-07-21 11:18:25.021";"2014-07-21 11:30:25.999";"1";"0";"1";"0";"0";"161";"160";"module.IAT_practice1.exec-9839.IAT_Practice1";;;;;;;;;;;;;;;;;;;;;;;;;;;;;;;;;;;;;;;;;;;;;;;;;;;;;;;;;;;;;;;;;;;;;;;;;;;;;;;;"1728";"2014-07-21 11:27:22.089";"FINISHED";"NEUTRAL";"success";"781";"2014-07-21 11:27:20.360";"IAT_UPpractice.csv";"2";"ordinary"
"FB12AS";;;"Windows 7";"Rachel's Experiment (SCIAT)";"1.0";"1";"1";"1";"1";"1";"1";"2014-07-21 11:18:25.021";"2014-07-21 11:30:25.999";"1";"0";"1";"0";"0";"162";"161";"module.IAT_practice1.exec-9839.IAT_Practice1";;;;;;;;;;;;;;;;;;;;;;;;;;;;;;;;;;;;;;;;;;;;;;;;;;;;;;;;;;;;;;;;;;;;;;;;;;;;;;;;"1702";"2014-07-21 11:27:23.837";"FINISHED";"NEUTRAL";"success";"834";"2014-07-21 11:27:22.134";"IAT_UPpractice.csv";"2";"moderate"
"FB12AS";;;"Windows 7";"Rachel's Experiment (SCIAT)";"1.0";"1";"1";"1";"1";"1";"1";"2014-07-21 11:18:25.021";"2014-07-21 11:30:25.999";"1";"0";"1";"0";"0";"163";"162";"module.IAT_practice1.exec-9839.IAT_Practice1";;;;;;;;;;;;;;;;;;;;;;;;;;;;;;;;;;;;;;;;;;;;;;;;;;;;;;;;;;;;;;;;;;;;;;;;;;;;;;;;"1702";"2014-07-21 11:27:25.583";"FINISHED";"UNPLEASANT";"success";"804";"2014-07-21 11:27:23.879";"IAT_UPpractice.csv";"1";"horrible"
"FB12AS";;;"Windows 7";"Rachel's Experiment (SCIAT)";"1.0";"1";"1";"1";"1";"1";"1";"2014-07-21 11:18:25.021";"2014-07-21 11:30:25.999";"1";"0";"1";"0";"0";"164";"163";"module.IAT_practice1.exec-9839.IAT_Practice1";;;;;;;;;;;;;;;;;;;;;;;;;;;;;;;;;;;;;;;;;;;;;;;;;;;;;;;;;;;;;;;;;;;;;;;;;;;;;;;;"1703";"2014-07-21 11:27:27.331";"FINISHED";"UNPLEASANT";"success";"604";"2014-07-21 11:27:25.627";"IAT_UPpractice.csv";"1";"disgusting"
"FB12AS";;;"Windows 7";"Rachel's Experiment (SCIAT)";"1.0";"1";"1";"1";"1";"1";"1";"2014-07-21 11:18:25.021";"2014-07-21 11:30:25.999";"1";"0";"1";"0";"0";"165";"164";"module.IAT_practice1.exec-9839.IAT_Practice1";;;;;;;;;;;;;;;;;;;;;;;;;;;;;;;;;;;;;;;;;;;;;;;;;;;;;;;;;;;;;;;;;;;;;;;;;;;;;;;;"1702";"2014-07-21 11:27:29.061";"FINISHED";"NEUTRAL";"success";"690";"2014-07-21 11:27:27.358";"IAT_UPpractice.csv";"2";"undefined"
"FB12AS";;;"Windows 7";"Rachel's Experiment (SCIAT)";"1.0";"1";"1";"1";"1";"1";"1";"2014-07-21 11:18:25.021";"2014-07-21 11:30:25.999";"1";"0";"1";"0";"0";"166";"165";"module.IAT_practice1.exec-9839.IAT_Practice1";;;;;;;;;;;;;;;;;;;;;;;;;;;;;;;;;;;;;;;;;;;;;;;;;;;;;;;;;;;;;;;;;;;;;;;;;;;;;;;;"1702";"2014-07-21 11:27:30.790";"FINISHED";"NEUTRAL";"success";"644";"2014-07-21 11:27:29.087";"IAT_UPpractice.csv";"2";"moderate"
"FB12AS";;;"Windows 7";"Rachel's Experiment (SCIAT)";"1.0";"1";"1";"1";"1";"1";"1";"2014-07-21 11:18:25.021";"2014-07-21 11:30:25.999";"1";"0";"1";"0";"0";"167";"166";"module.IAT_practice1.exec-9839.IAT_Practice1";;;;;;;;;;;;;;;;;;;;;;;;;;;;;;;;;;;;;;;;;;;;;;;;;;;;;;;;;;;;;;;;;;;;;;;;;;;;;;;;"1702";"2014-07-21 11:27:32.674";"FINISHED";"UNPLEASANT";"success";"606";"2014-07-21 11:27:30.971";"IAT_UPpractice.csv";"1";"awful"
"FB12AS";;;"Windows 7";"Rachel's Experiment (SCIAT)";"1.0";"1";"1";"1";"1";"1";"1";"2014-07-21 11:18:25.021";"2014-07-21 11:30:25.999";"1";"0";"1";"0";"0";"168";"167";"module.IAT_practice1.exec-9839.IAT_Practice1";;;;;;;;;;;;;;;;;;;;;;;;;;;;;;;;;;;;;;;;;;;;;;;;;;;;;;;;;;;;;;;;;;;;;;;;;;;;;;;;"1702";"2014-07-21 11:27:34.405";"FINISHED";"UNPLEASANT";"success";"911";"2014-07-21 11:27:32.702";"IAT_UPpractice.csv";"1";"awful"
"FB12AS";;;"Windows 7";"Rachel's Experiment (SCIAT)";"1.0";"1";"1";"1";"1";"1";"1";"2014-07-21 11:18:25.021";"2014-07-21 11:30:25.999";"1";"0";"1";"0";"0";"169";"168";"module.IAT_practice1.exec-9839.IAT_Practice1";;;;;;;;;;;;;;;;;;;;;;;;;;;;;;;;;;;;;;;;;;;;;;;;;;;;;;;;;;;;;;;;;;;;;;;;;;;;;;;;"1702";"2014-07-21 11:27:36.149";"FINISHED";"UNPLEASANT";"success";"634";"2014-07-21 11:27:34.446";"IAT_UPpractice.csv";"1";"bad"
"FB12AS";;;"Windows 7";"Rachel's Experiment (SCIAT)";"1.0";"1";"1";"1";"1";"1";"1";"2014-07-21 11:18:25.021";"2014-07-21 11:30:25.999";"1";"0";"1";"0";"0";"170";"169";"module.IAT_practice1.exec-9839.IAT_Practice1";;;;;;;;;;;;;;;;;;;;;;;;;;;;;;;;;;;;;;;;;;;;;;;;;;;;;;;;;;;;;;;;;;;;;;;;;;;;;;;;"1702";"2014-07-21 11:27:37.893";"FINISHED";"NEUTRAL";"success";"615";"2014-07-21 11:27:36.190";"IAT_UPpractice.csv";"2";"average"
"FB12AS";;;"Windows 7";"Rachel's Experiment (SCIAT)";"1.0";"1";"1";"1";"1";"1";"1";"2014-07-21 11:18:25.021";"2014-07-21 11:30:25.999";"1";"0";"1";"0";"0";"171";"170";"module.IAT_practice1.exec-9839.IAT_Practice1";;;;;;;;;;;;;;;;;;;;;;;;;;;;;;;;;;;;;;;;;;;;;;;;;;;;;;;;;;;;;;;;;;;;;;;;;;;;;;;;"1703";"2014-07-21 11:27:39.637";"FINISHED";"UNPLEASANT";"success";"566";"2014-07-21 11:27:37.934";"IAT_UPpractice.csv";"1";"nasty"
"FB12AS";;;"Windows 7";"Rachel's Experiment (SCIAT)";"1.0";"1";"1";"1";"1";"1";"1";"2014-07-21 11:18:25.021";"2014-07-21 11:30:25.999";"1";"0";"1";"0";"0";"172";"171";"module.IAT_practice1.exec-9839.IAT_Practice1";;;;;;;;;;;;;;;;;;;;;;;;;;;;;;;;;;;;;;;;;;;;;;;;;;;;;;;;;;;;;;;;;;;;;;;;;;;;;;;;"1702";"2014-07-21 11:27:41.377";"FINISHED";"UNPLEASANT";"success";"471";"2014-07-21 11:27:39.674";"IAT_UPpractice.csv";"1";"revolting"
"FB12AS";;;"Windows 7";"Rachel's Experiment (SCIAT)";"1.0";"1";"1";"1";"1";"1";"1";"2014-07-21 11:18:25.021";"2014-07-21 11:30:25.999";"1";"0";"1";"0";"0";"173";"172";"module.IAT_practice1.exec-9839.IAT_Practice1";;;;;;;;;;;;;;;;;;;;;;;;;;;;;;;;;;;;;;;;;;;;;;;;;;;;;;;;;;;;;;;;;;;;;;;;;;;;;;;;"1702";"2014-07-21 11:27:43.122";"FINISHED";"NEUTRAL";"success";"621";"2014-07-21 11:27:41.418";"IAT_UPpractice.csv";"2";"general"
"FB12AS";;;"Windows 7";"Rachel's Experiment (SCIAT)";"1.0";"1";"1";"1";"1";"1";"1";"2014-07-21 11:18:25.021";"2014-07-21 11:30:25.999";"1";"0";"1";"0";"0";"174";"173";"module.IAT_practice1.exec-9839.IAT_Practice1";;;;;;;;;;;;;;;;;;;;;;;;;;;;;;;;;;;;;;;;;;;;;;;;;;;;;;;;;;;;;;;;;;;;;;;;;;;;;;;;"1702";"2014-07-21 11:27:44.865";"FINISHED";"NEUTRAL";"success";"434";"2014-07-21 11:27:43.162";"IAT_UPpractice.csv";"2";"ordinary"
"FB12AS";;;"Windows 7";"Rachel's Experiment (SCIAT)";"1.0";"1";"1";"1";"1";"1";"1";"2014-07-21 11:18:25.021";"2014-07-21 11:30:25.999";"1";"0";"1";"0";"0";"175";"174";"module.IAT_practice1.exec-9839.IAT_Practice1";;;;;;;;;;;;;;;;;;;;;;;;;;;;;;;;;;;;;;;;;;;;;;;;;;;;;;;;;;;;;;;;;;;;;;;;;;;;;;;;"1702";"2014-07-21 11:27:46.595";"FINISHED";"UNPLEASANT";"success";"482";"2014-07-21 11:27:44.892";"IAT_UPpractice.csv";"1";"horrible"
"FB12AS";;;"Windows 7";"Rachel's Experiment (SCIAT)";"1.0";"1";"1";"1";"1";"1";"1";"2014-07-21 11:18:25.021";"2014-07-21 11:30:25.999";"1";"0";"1";"0";"0";"176";"175";"module.IAT_practice1.exec-9839.IAT_Practice1";;;;;;;;;;;;;;;;;;;;;;;;;;;;;;;;;;;;;;;;;;;;;;;;;;;;;;;;;;;;;;;;;;;;;;;;;;;;;;;;"1719";"2014-07-21 11:27:48.354";"FINISHED";"UNPLEASANT";"failure";"433";"2014-07-21 11:27:46.635";"IAT_UPpractice.csv";"2";"adequate"
"FB12AS";;;"Windows 7";"Rachel's Experiment (SCIAT)";"1.0";"1";"1";"1";"1";"1";"1";"2014-07-21 11:18:25.021";"2014-07-21 11:30:25.999";"1";"0";"1";"0";"0";"177";"176";"module.IAT_practice1.exec-9839.IAT_Practice1";;;;;;;;;;;;;;;;;;;;;;;;;;;;;;;;;;;;;;;;;;;;;;;;;;;;;;;;;;;;;;;;;;;;;;;;;;;;;;;;"1703";"2014-07-21 11:27:50.084";"FINISHED";"UNPLEASANT";"success";"1292";"2014-07-21 11:27:48.381";"IAT_UPpractice.csv";"1";"revolting"
"FB12AS";;;"Windows 7";"Rachel's Experiment (SCIAT)";"1.0";"1";"1";"1";"1";"1";"1";"2014-07-21 11:18:25.021";"2014-07-21 11:30:25.999";"1";"0";"1";"0";"0";"178";"177";"module.IAT_practice1.exec-9839.IAT_Practice1";;;;;;;;;;;;;;;;;;;;;;;;;;;;;;;;;;;;;;;;;;;;;;;;;;;;;;;;;;;;;;;;;;;;;;;;;;;;;;;;"1703";"2014-07-21 11:27:51.815";"FINISHED";"NEUTRAL";"success";"887";"2014-07-21 11:27:50.112";"IAT_UPpractice.csv";"2";"average"
"FB12AS";;;"Windows 7";"Rachel's Experiment (SCIAT)";"1.0";"1";"1";"1";"1";"1";"1";"2014-07-21 11:18:25.021";"2014-07-21 11:30:25.999";"1";"0";"1";"0";"0";"179";"178";"module.IAT_practice1.exec-9839.IAT_Practice1";;;;;;;;;;;;;;;;;;;;;;;;;;;;;;;;;;;;;;;;;;;;;;;;;;;;;;;;;;;;;;;;;;;;;;;;;;;;;;;;"1704";"2014-07-21 11:27:53.548";"FINISHED";"UNPLEASANT";"success";"611";"2014-07-21 11:27:51.844";"IAT_UPpractice.csv";"1";"nasty"
"FB12AS";;;"Windows 7";"Rachel's Experiment (SCIAT)";"1.0";"1";"1";"1";"1";"1";"1";"2014-07-21 11:18:25.021";"2014-07-21 11:30:25.999";"1";"0";"1";"0";"0";"180";"179";"module.IAT_practice1.exec-9839.IAT_Practice1";;;;;;;;;;;;;;;;;;;;;;;;;;;;;;;;;;;;;;;;;;;;;;;;;;;;;;;;;;;;;;;;;;;;;;;;;;;;;;;;"1702";"2014-07-21 11:27:55.277";"FINISHED";"NEUTRAL";"success";"579";"2014-07-21 11:27:53.574";"IAT_UPpractice.csv";"2";"general"
"FB12AS";;;"Windows 7";"Rachel's Experiment (SCIAT)";"1.0";"1";"1";"1";"1";"1";"1";"2014-07-21 11:18:25.021";"2014-07-21 11:30:25.999";"1";"0";"1";"0";"0";"181";"180";"module.IAT_practice1.exec-9839.IAT_Practice1";;;;;;;;;;;;;;;;;;;;;;;;;;;;;;;;;;;;;;;;;;;;;;;;;;;;;;;;;;;;;;;;;;;;;;;;;;;;;;;;"1703";"2014-07-21 11:27:57.008";"FINISHED";"UNPLEASANT";"success";"504";"2014-07-21 11:27:55.305";"IAT_UPpractice.csv";"1";"bad"
"FB12AS";;;"Windows 7";"Rachel's Experiment (SCIAT)";"1.0";"1";"1";"1";"1";"1";"1";"2014-07-21 11:18:25.021";"2014-07-21 11:30:25.999";"1";"0";"1";"0";"0";"182";"181";"module.IAT_practice1.exec-9839.IAT_Practice1";;;;;;;;;;;;;;;;;;;;;;;;;;;;;;;;;;;;;;;;;;;;;;;;;;;;;;;;;;;;;;;;;;;;;;;;;;;;;;;;"1703";"2014-07-21 11:27:58.736";"FINISHED";"NEUTRAL";"success";"652";"2014-07-21 11:27:57.032";"IAT_UPpractice.csv";"2";"adequate"
"FB12AS";;;"Windows 7";"Rachel's Experiment (SCIAT)";"1.0";"1";"1";"1";"1";"1";"1";"2014-07-21 11:18:25.021";"2014-07-21 11:30:25.999";"1";"0";"1";"0";"0";"183";"182";"module.IAT_practice1.exec-9839.IAT_Practice1";;;;;;;;;;;;;;;;;;;;;;;;;;;;;;;;;;;;;;;;;;;;;;;;;;;;;;;;;;;;;;;;;;;;;;;;;;;;;;;;"1702";"2014-07-21 11:28:00.467";"FINISHED";"UNPLEASANT";"success";"704";"2014-07-21 11:27:58.763";"IAT_UPpractice.csv";"1";"disgusting"
"FB12AS";;;"Windows 7";"Rachel's Experiment (SCIAT)";"1.0";"1";"1";"1";"1";"1";"1";"2014-07-21 11:18:25.021";"2014-07-21 11:30:25.999";"1";"0";"1";"0";"0";"184";"183";"module.IAT_Block1.exec-7809.IAT_block1";;;;;;;;;;;;;;;;;;;;;;;;;;;;;;;;;;;;;;;;;;;;;;;;;;;;;;;;;;;;;;;;;;;;;;"1706";"2014-07-21 11:28:19.751";"FINISHED";"UNPLEASANT";"success";"1134";"2014-07-21 11:28:18.045";"IAT_UPUP.csv";"1";"revolting";;;;;;;;;;
"FB12AS";;;"Windows 7";"Rachel's Experiment (SCIAT)";"1.0";"1";"1";"1";"1";"1";"1";"2014-07-21 11:18:25.021";"2014-07-21 11:30:25.999";"1";"0";"1";"0";"0";"185";"184";"module.IAT_Block1.exec-7809.IAT_block1";;;;;;;;;;;;;;;;;;;;;;;;;;;;;;;;;;;;;;;;;;;;;;;;;;;;;;;;;;;;;;;;;;;;;;"1702";"2014-07-21 11:28:21.491";"FINISHED";"UNPLEASANT";"success";"576";"2014-07-21 11:28:19.788";"IAT_UPUP.csv";"1";"A2";;;;;;;;;;
"FB12AS";;;"Windows 7";"Rachel's Experiment (SCIAT)";"1.0";"1";"1";"1";"1";"1";"1";"2014-07-21 11:18:25.021";"2014-07-21 11:30:25.999";"1";"0";"1";"0";"0";"186";"185";"module.IAT_Block1.exec-7809.IAT_block1";;;;;;;;;;;;;;;;;;;;;;;;;;;;;;;;;;;;;;;;;;;;;;;;;;;;;;;;;;;;;;;;;;;;;;"1702";"2014-07-21 11:28:23.222";"FINISHED";"NEUTRAL";"success";"643";"2014-07-21 11:28:21.519";"IAT_UPUP.csv";"2";"undefined";;;;;;;;;;
"FB12AS";;;"Windows 7";"Rachel's Experiment (SCIAT)";"1.0";"1";"1";"1";"1";"1";"1";"2014-07-21 11:18:25.021";"2014-07-21 11:30:25.999";"1";"0";"1";"0";"0";"187";"186";"module.IAT_Block1.exec-7809.IAT_block1";;;;;;;;;;;;;;;;;;;;;;;;;;;;;;;;;;;;;;;;;;;;;;;;;;;;;;;;;;;;;;;;;;;;;;"1703";"2014-07-21 11:28:24.952";"FINISHED";"UNPLEASANT";"success";"559";"2014-07-21 11:28:23.248";"IAT_UPUP.csv";"1";"revolting";;;;;;;;;;
"FB12AS";;;"Windows 7";"Rachel's Experiment (SCIAT)";"1.0";"1";"1";"1";"1";"1";"1";"2014-07-21 11:18:25.021";"2014-07-21 11:30:25.999";"1";"0";"1";"0";"0";"188";"187";"module.IAT_Block1.exec-7809.IAT_block1";;;;;;;;;;;;;;;;;;;;;;;;;;;;;;;;;;;;;;;;;;;;;;;;;;;;;;;;;;;;;;;;;;;;;;"1703";"2014-07-21 11:28:26.691";"FINISHED";"UNPLEASANT";"success";"438";"2014-07-21 11:28:24.988";"IAT_UPUP.csv";"1";"A3";;;;;;;;;;
"FB12AS";;;"Windows 7";"Rachel's Experiment (SCIAT)";"1.0";"1";"1";"1";"1";"1";"1";"2014-07-21 11:18:25.021";"2014-07-21 11:30:25.999";"1";"0";"1";"0";"0";"189";"188";"module.IAT_Block1.exec-7809.IAT_block1";;;;;;;;;;;;;;;;;;;;;;;;;;;;;;;;;;;;;;;;;;;;;;;;;;;;;;;;;;;;;;;;;;;;;;"1703";"2014-07-21 11:28:28.422";"FINISHED";"NEUTRAL";"success";"572";"2014-07-21 11:28:26.719";"IAT_UPUP.csv";"2";"adequate";;;;;;;;;;
"FB12AS";;;"Windows 7";"Rachel's Experiment (SCIAT)";"1.0";"1";"1";"1";"1";"1";"1";"2014-07-21 11:18:25.021";"2014-07-21 11:30:25.999";"1";"0";"1";"0";"0";"190";"189";"module.IAT_Block1.exec-7809.IAT_block1";;;;;;;;;;;;;;;;;;;;;;;;;;;;;;;;;;;;;;;;;;;;;;;;;;;;;;;;;;;;;;;;;;;;;;"1704";"2014-07-21 11:28:30.164";"FINISHED";"UNPLEASANT";"success";"488";"2014-07-21 11:28:28.460";"IAT_UPUP.csv";"1";"A0";;;;;;;;;;
"FB12AS";;;"Windows 7";"Rachel's Experiment (SCIAT)";"1.0";"1";"1";"1";"1";"1";"1";"2014-07-21 11:18:25.021";"2014-07-21 11:30:25.999";"1";"0";"1";"0";"0";"191";"190";"module.IAT_Block1.exec-7809.IAT_block1";;;;;;;;;;;;;;;;;;;;;;;;;;;;;;;;;;;;;;;;;;;;;;;;;;;;;;;;;;;;;;;;;;;;;;"1703";"2014-07-21 11:28:31.896";"FINISHED";"NEUTRAL";"success";"742";"2014-07-21 11:28:30.192";"IAT_UPUP.csv";"2";"ordinary";;;;;;;;;;
"FB12AS";;;"Windows 7";"Rachel's Experiment (SCIAT)";"1.0";"1";"1";"1";"1";"1";"1";"2014-07-21 11:18:25.021";"2014-07-21 11:30:25.999";"1";"0";"1";"0";"0";"192";"191";"module.IAT_Block1.exec-7809.IAT_block1";;;;;;;;;;;;;;;;;;;;;;;;;;;;;;;;;;;;;;;;;;;;;;;;;;;;;;;;;;;;;;;;;;;;;;"1702";"2014-07-21 11:28:33.624";"FINISHED";"UNPLEASANT";"success";"478";"2014-07-21 11:28:31.921";"IAT_UPUP.csv";"1";"awful";;;;;;;;;;
"FB12AS";;;"Windows 7";"Rachel's Experiment (SCIAT)";"1.0";"1";"1";"1";"1";"1";"1";"2014-07-21 11:18:25.021";"2014-07-21 11:30:25.999";"1";"0";"1";"0";"0";"193";"192";"module.IAT_Block1.exec-7809.IAT_block1";;;;;;;;;;;;;;;;;;;;;;;;;;;;;;;;;;;;;;;;;;;;;;;;;;;;;;;;;;;;;;;;;;;;;;"1703";"2014-07-21 11:28:35.355";"FINISHED";"UNPLEASANT";"failure";"446";"2014-07-21 11:28:33.650";"IAT_UPUP.csv";"2";"ordinary";;;;;;;;;;
"FB12AS";;;"Windows 7";"Rachel's Experiment (SCIAT)";"1.0";"1";"1";"1";"1";"1";"1";"2014-07-21 11:18:25.021";"2014-07-21 11:30:25.999";"1";"0";"1";"0";"0";"194";"193";"module.IAT_Block1.exec-7809.IAT_block1";;;;;;;;;;;;;;;;;;;;;;;;;;;;;;;;;;;;;;;;;;;;;;;;;;;;;;;;;;;;;;;;;;;;;;"1702";"2014-07-21 11:28:37.084";"FINISHED";"UNPLEASANT";"success";"812";"2014-07-21 11:28:35.381";"IAT_UPUP.csv";"1";"bad";;;;;;;;;;
"FB12AS";;;"Windows 7";"Rachel's Experiment (SCIAT)";"1.0";"1";"1";"1";"1";"1";"1";"2014-07-21 11:18:25.021";"2014-07-21 11:30:25.999";"1";"0";"1";"0";"0";"195";"194";"module.IAT_Block1.exec-7809.IAT_block1";;;;;;;;;;;;;;;;;;;;;;;;;;;;;;;;;;;;;;;;;;;;;;;;;;;;;;;;;;;;;;;;;;;;;;"1702";"2014-07-21 11:28:38.813";"FINISHED";"UNPLEASANT";"success";"599";"2014-07-21 11:28:37.110";"IAT_UPUP.csv";"1";"A0";;;;;;;;;;
"FB12AS";;;"Windows 7";"Rachel's Experiment (SCIAT)";"1.0";"1";"1";"1";"1";"1";"1";"2014-07-21 11:18:25.021";"2014-07-21 11:30:25.999";"1";"0";"1";"0";"0";"196";"195";"module.IAT_Block1.exec-7809.IAT_block1";;;;;;;;;;;;;;;;;;;;;;;;;;;;;;;;;;;;;;;;;;;;;;;;;;;;;;;;;;;;;;;;;;;;;;"1702";"2014-07-21 11:28:40.551";"FINISHED";"UNPLEASANT";"success";"679";"2014-07-21 11:28:38.848";"IAT_UPUP.csv";"1";"A4";;;;;;;;;;
"FB12AS";;;"Windows 7";"Rachel's Experiment (SCIAT)";"1.0";"1";"1";"1";"1";"1";"1";"2014-07-21 11:18:25.021";"2014-07-21 11:30:25.999";"1";"0";"1";"0";"0";"197";"196";"module.IAT_Block1.exec-7809.IAT_block1";;;;;;;;;;;;;;;;;;;;;;;;;;;;;;;;;;;;;;;;;;;;;;;;;;;;;;;;;;;;;;;;;;;;;;"1702";"2014-07-21 11:28:42.281";"FINISHED";"NEUTRAL";"success";"486";"2014-07-21 11:28:40.578";"IAT_UPUP.csv";"2";"average";;;;;;;;;;
"FB12AS";;;"Windows 7";"Rachel's Experiment (SCIAT)";"1.0";"1";"1";"1";"1";"1";"1";"2014-07-21 11:18:25.021";"2014-07-21 11:30:25.999";"1";"0";"1";"0";"0";"198";"197";"module.IAT_Block1.exec-7809.IAT_block1";;;;;;;;;;;;;;;;;;;;;;;;;;;;;;;;;;;;;;;;;;;;;;;;;;;;;;;;;;;;;;;;;;;;;;"1702";"2014-07-21 11:28:44.020";"FINISHED";"UNPLEASANT";"success";"537";"2014-07-21 11:28:42.317";"IAT_UPUP.csv";"1";"A5";;;;;;;;;;
"FB12AS";;;"Windows 7";"Rachel's Experiment (SCIAT)";"1.0";"1";"1";"1";"1";"1";"1";"2014-07-21 11:18:25.021";"2014-07-21 11:30:25.999";"1";"0";"1";"0";"0";"199";"198";"module.IAT_Block1.exec-7809.IAT_block1";;;;;;;;;;;;;;;;;;;;;;;;;;;;;;;;;;;;;;;;;;;;;;;;;;;;;;;;;;;;;;;;;;;;;;"1702";"2014-07-21 11:28:45.748";"FINISHED";"UNPLEASANT";"failure";"503";"2014-07-21 11:28:44.045";"IAT_UPUP.csv";"2";"undefined";;;;;;;;;;
"FB12AS";;;"Windows 7";"Rachel's Experiment (SCIAT)";"1.0";"1";"1";"1";"1";"1";"1";"2014-07-21 11:18:25.021";"2014-07-21 11:30:25.999";"1";"0";"1";"0";"0";"200";"199";"module.IAT_Block1.exec-7809.IAT_block1";;;;;;;;;;;;;;;;;;;;;;;;;;;;;;;;;;;;;;;;;;;;;;;;;;;;;;;;;;;;;;;;;;;;;;"1702";"2014-07-21 11:28:47.470";"FINISHED";"NEUTRAL";"success";"856";"2014-07-21 11:28:45.768";"IAT_UPUP.csv";"2";"undefined";;;;;;;;;;
"FB12AS";;;"Windows 7";"Rachel's Experiment (SCIAT)";"1.0";"1";"1";"1";"1";"1";"1";"2014-07-21 11:18:25.021";"2014-07-21 11:30:25.999";"1";"0";"1";"0";"0";"201";"200";"module.IAT_Block1.exec-7809.IAT_block1";;;;;;;;;;;;;;;;;;;;;;;;;;;;;;;;;;;;;;;;;;;;;;;;;;;;;;;;;;;;;;;;;;;;;;"1703";"2014-07-21 11:28:49.206";"FINISHED";"NEUTRAL";"success";"799";"2014-07-21 11:28:47.503";"IAT_UPUP.csv";"2";"adequate";;;;;;;;;;
"FB12AS";;;"Windows 7";"Rachel's Experiment (SCIAT)";"1.0";"1";"1";"1";"1";"1";"1";"2014-07-21 11:18:25.021";"2014-07-21 11:30:25.999";"1";"0";"1";"0";"0";"202";"201";"module.IAT_Block1.exec-7809.IAT_block1";;;;;;;;;;;;;;;;;;;;;;;;;;;;;;;;;;;;;;;;;;;;;;;;;;;;;;;;;;;;;;;;;;;;;;"1702";"2014-07-21 11:28:50.936";"FINISHED";"NEUTRAL";"success";"586";"2014-07-21 11:28:49.233";"IAT_UPUP.csv";"2";"general";;;;;;;;;;
"FB12AS";;;"Windows 7";"Rachel's Experiment (SCIAT)";"1.0";"1";"1";"1";"1";"1";"1";"2014-07-21 11:18:25.021";"2014-07-21 11:30:25.999";"1";"0";"1";"0";"0";"203";"202";"module.IAT_Block1.exec-7809.IAT_block1";;;;;;;;;;;;;;;;;;;;;;;;;;;;;;;;;;;;;;;;;;;;;;;;;;;;;;;;;;;;;;;;;;;;;;"1702";"2014-07-21 11:28:52.673";"FINISHED";"UNPLEASANT";"success";"697";"2014-07-21 11:28:50.969";"IAT_UPUP.csv";"1";"disgusting";;;;;;;;;;
"FB12AS";;;"Windows 7";"Rachel's Experiment (SCIAT)";"1.0";"1";"1";"1";"1";"1";"1";"2014-07-21 11:18:25.021";"2014-07-21 11:30:25.999";"1";"0";"1";"0";"0";"204";"203";"module.IAT_Block1.exec-7809.IAT_block1";;;;;;;;;;;;;;;;;;;;;;;;;;;;;;;;;;;;;;;;;;;;;;;;;;;;;;;;;;;;;;;;;;;;;;"1702";"2014-07-21 11:28:54.402";"FINISHED";"NEUTRAL";"success";"802";"2014-07-21 11:28:52.700";"IAT_UPUP.csv";"2";"undefined";;;;;;;;;;
"FB12AS";;;"Windows 7";"Rachel's Experiment (SCIAT)";"1.0";"1";"1";"1";"1";"1";"1";"2014-07-21 11:18:25.021";"2014-07-21 11:30:25.999";"1";"0";"1";"0";"0";"205";"204";"module.IAT_Block1.exec-7809.IAT_block1";;;;;;;;;;;;;;;;;;;;;;;;;;;;;;;;;;;;;;;;;;;;;;;;;;;;;;;;;;;;;;;;;;;;;;"1702";"2014-07-21 11:28:56.143";"FINISHED";"UNPLEASANT";"success";"529";"2014-07-21 11:28:54.440";"IAT_UPUP.csv";"1";"A1";;;;;;;;;;
"FB12AS";;;"Windows 7";"Rachel's Experiment (SCIAT)";"1.0";"1";"1";"1";"1";"1";"1";"2014-07-21 11:18:25.021";"2014-07-21 11:30:25.999";"1";"0";"1";"0";"0";"206";"205";"module.IAT_Block1.exec-7809.IAT_block1";;;;;;;;;;;;;;;;;;;;;;;;;;;;;;;;;;;;;;;;;;;;;;;;;;;;;;;;;;;;;;;;;;;;;;"1702";"2014-07-21 11:28:57.872";"FINISHED";"NEUTRAL";"success";"529";"2014-07-21 11:28:56.169";"IAT_UPUP.csv";"2";"moderate";;;;;;;;;;
"FB12AS";;;"Windows 7";"Rachel's Experiment (SCIAT)";"1.0";"1";"1";"1";"1";"1";"1";"2014-07-21 11:18:25.021";"2014-07-21 11:30:25.999";"1";"0";"1";"0";"0";"207";"206";"module.IAT_Block1.exec-7809.IAT_block1";;;;;;;;;;;;;;;;;;;;;;;;;;;;;;;;;;;;;;;;;;;;;;;;;;;;;;;;;;;;;;;;;;;;;;"1702";"2014-07-21 11:28:59.601";"FINISHED";"NEUTRAL";"success";"406";"2014-07-21 11:28:57.898";"IAT_UPUP.csv";"2";"moderate";;;;;;;;;;
"FB12AS";;;"Windows 7";"Rachel's Experiment (SCIAT)";"1.0";"1";"1";"1";"1";"1";"1";"2014-07-21 11:18:25.021";"2014-07-21 11:30:25.999";"1";"0";"1";"0";"0";"208";"207";"module.IAT_Block1.exec-7809.IAT_block1";;;;;;;;;;;;;;;;;;;;;;;;;;;;;;;;;;;;;;;;;;;;;;;;;;;;;;;;;;;;;;;;;;;;;;"1703";"2014-07-21 11:29:01.330";"FINISHED";"UNPLEASANT";"success";"576";"2014-07-21 11:28:59.626";"IAT_UPUP.csv";"1";"A4";;;;;;;;;;
"FB12AS";;;"Windows 7";"Rachel's Experiment (SCIAT)";"1.0";"1";"1";"1";"1";"1";"1";"2014-07-21 11:18:25.021";"2014-07-21 11:30:25.999";"1";"0";"1";"0";"0";"209";"208";"module.IAT_Block1.exec-7809.IAT_block1";;;;;;;;;;;;;;;;;;;;;;;;;;;;;;;;;;;;;;;;;;;;;;;;;;;;;;;;;;;;;;;;;;;;;;"1702";"2014-07-21 11:29:03.061";"FINISHED";"NEUTRAL";"success";"430";"2014-07-21 11:29:01.358";"IAT_UPUP.csv";"2";"moderate";;;;;;;;;;
"FB12AS";;;"Windows 7";"Rachel's Experiment (SCIAT)";"1.0";"1";"1";"1";"1";"1";"1";"2014-07-21 11:18:25.021";"2014-07-21 11:30:25.999";"1";"0";"1";"0";"0";"210";"209";"module.IAT_Block1.exec-7809.IAT_block1";;;;;;;;;;;;;;;;;;;;;;;;;;;;;;;;;;;;;;;;;;;;;;;;;;;;;;;;;;;;;;;;;;;;;;"1703";"2014-07-21 11:29:04.790";"FINISHED";"NEUTRAL";"success";"379";"2014-07-21 11:29:03.087";"IAT_UPUP.csv";"2";"ordinary";;;;;;;;;;
"FB12AS";;;"Windows 7";"Rachel's Experiment (SCIAT)";"1.0";"1";"1";"1";"1";"1";"1";"2014-07-21 11:18:25.021";"2014-07-21 11:30:25.999";"1";"0";"1";"0";"0";"211";"210";"module.IAT_Block1.exec-7809.IAT_block1";;;;;;;;;;;;;;;;;;;;;;;;;;;;;;;;;;;;;;;;;;;;;;;;;;;;;;;;;;;;;;;;;;;;;;"1702";"2014-07-21 11:29:06.518";"FINISHED";"UNPLEASANT";"success";"466";"2014-07-21 11:29:04.816";"IAT_UPUP.csv";"1";"A3";;;;;;;;;;
"FB12AS";;;"Windows 7";"Rachel's Experiment (SCIAT)";"1.0";"1";"1";"1";"1";"1";"1";"2014-07-21 11:18:25.021";"2014-07-21 11:30:25.999";"1";"0";"1";"0";"0";"212";"211";"module.IAT_Block1.exec-7809.IAT_block1";;;;;;;;;;;;;;;;;;;;;;;;;;;;;;;;;;;;;;;;;;;;;;;;;;;;;;;;;;;;;;;;;;;;;;"1702";"2014-07-21 11:29:08.248";"FINISHED";"UNPLEASANT";"success";"423";"2014-07-21 11:29:06.545";"IAT_UPUP.csv";"1";"A3";;;;;;;;;;
"FB12AS";;;"Windows 7";"Rachel's Experiment (SCIAT)";"1.0";"1";"1";"1";"1";"1";"1";"2014-07-21 11:18:25.021";"2014-07-21 11:30:25.999";"1";"0";"1";"0";"0";"213";"212";"module.IAT_Block1.exec-7809.IAT_block1";;;;;;;;;;;;;;;;;;;;;;;;;;;;;;;;;;;;;;;;;;;;;;;;;;;;;;;;;;;;;;;;;;;;;;"1703";"2014-07-21 11:29:09.979";"FINISHED";"UNPLEASANT";"success";"452";"2014-07-21 11:29:08.275";"IAT_UPUP.csv";"1";"A4";;;;;;;;;;
"FB12AS";;;"Windows 7";"Rachel's Experiment (SCIAT)";"1.0";"1";"1";"1";"1";"1";"1";"2014-07-21 11:18:25.021";"2014-07-21 11:30:25.999";"1";"0";"1";"0";"0";"214";"213";"module.IAT_Block1.exec-7809.IAT_block1";;;;;;;;;;;;;;;;;;;;;;;;;;;;;;;;;;;;;;;;;;;;;;;;;;;;;;;;;;;;;;;;;;;;;;"1703";"2014-07-21 11:29:11.709";"FINISHED";"NEUTRAL";"success";"529";"2014-07-21 11:29:10.006";"IAT_UPUP.csv";"2";"adequate";;;;;;;;;;
"FB12AS";;;"Windows 7";"Rachel's Experiment (SCIAT)";"1.0";"1";"1";"1";"1";"1";"1";"2014-07-21 11:18:25.021";"2014-07-21 11:30:25.999";"1";"0";"1";"0";"0";"215";"214";"module.IAT_Block1.exec-7809.IAT_block1";;;;;;;;;;;;;;;;;;;;;;;;;;;;;;;;;;;;;;;;;;;;;;;;;;;;;;;;;;;;;;;;;;;;;;"1703";"2014-07-21 11:29:13.441";"FINISHED";"UNPLEASANT";"success";"574";"2014-07-21 11:29:11.738";"IAT_UPUP.csv";"1";"horrible";;;;;;;;;;
"FB12AS";;;"Windows 7";"Rachel's Experiment (SCIAT)";"1.0";"1";"1";"1";"1";"1";"1";"2014-07-21 11:18:25.021";"2014-07-21 11:30:25.999";"1";"0";"1";"0";"0";"216";"215";"module.IAT_Block1.exec-7809.IAT_block1";;;;;;;;;;;;;;;;;;;;;;;;;;;;;;;;;;;;;;;;;;;;;;;;;;;;;;;;;;;;;;;;;;;;;;"1702";"2014-07-21 11:29:15.170";"FINISHED";"UNPLEASANT";"success";"429";"2014-07-21 11:29:13.467";"IAT_UPUP.csv";"1";"A1";;;;;;;;;;
"FB12AS";;;"Windows 7";"Rachel's Experiment (SCIAT)";"1.0";"1";"1";"1";"1";"1";"1";"2014-07-21 11:18:25.021";"2014-07-21 11:30:25.999";"1";"0";"1";"0";"0";"217";"216";"module.IAT_Block1.exec-7809.IAT_block1";;;;;;;;;;;;;;;;;;;;;;;;;;;;;;;;;;;;;;;;;;;;;;;;;;;;;;;;;;;;;;;;;;;;;;"1702";"2014-07-21 11:29:16.900";"FINISHED";"UNPLEASANT";"success";"388";"2014-07-21 11:29:15.197";"IAT_UPUP.csv";"1";"A1";;;;;;;;;;
"FB12AS";;;"Windows 7";"Rachel's Experiment (SCIAT)";"1.0";"1";"1";"1";"1";"1";"1";"2014-07-21 11:18:25.021";"2014-07-21 11:30:25.999";"1";"0";"1";"0";"0";"218";"217";"module.IAT_Block1.exec-7809.IAT_block1";;;;;;;;;;;;;;;;;;;;;;;;;;;;;;;;;;;;;;;;;;;;;;;;;;;;;;;;;;;;;;;;;;;;;;"1702";"2014-07-21 11:29:18.630";"FINISHED";"NEUTRAL";"success";"606";"2014-07-21 11:29:16.927";"IAT_UPUP.csv";"2";"average";;;;;;;;;;
"FB12AS";;;"Windows 7";"Rachel's Experiment (SCIAT)";"1.0";"1";"1";"1";"1";"1";"1";"2014-07-21 11:18:25.021";"2014-07-21 11:30:25.999";"1";"0";"1";"0";"0";"219";"218";"module.IAT_Block1.exec-7809.IAT_block1";;;;;;;;;;;;;;;;;;;;;;;;;;;;;;;;;;;;;;;;;;;;;;;;;;;;;;;;;;;;;;;;;;;;;;"1703";"2014-07-21 11:29:20.360";"FINISHED";"UNPLEASANT";"success";"454";"2014-07-21 11:29:18.657";"IAT_UPUP.csv";"1";"A4";;;;;;;;;;
"FB12AS";;;"Windows 7";"Rachel's Experiment (SCIAT)";"1.0";"1";"1";"1";"1";"1";"1";"2014-07-21 11:18:25.021";"2014-07-21 11:30:25.999";"1";"0";"1";"0";"0";"220";"219";"module.IAT_Block1.exec-7809.IAT_block1";;;;;;;;;;;;;;;;;;;;;;;;;;;;;;;;;;;;;;;;;;;;;;;;;;;;;;;;;;;;;;;;;;;;;;"1702";"2014-07-21 11:29:22.090";"FINISHED";"NEUTRAL";"success";"563";"2014-07-21 11:29:20.387";"IAT_UPUP.csv";"2";"adequate";;;;;;;;;;
"FB12AS";;;"Windows 7";"Rachel's Experiment (SCIAT)";"1.0";"1";"1";"1";"1";"1";"1";"2014-07-21 11:18:25.021";"2014-07-21 11:30:25.999";"1";"0";"1";"0";"0";"221";"220";"module.IAT_Block1.exec-7809.IAT_block1";;;;;;;;;;;;;;;;;;;;;;;;;;;;;;;;;;;;;;;;;;;;;;;;;;;;;;;;;;;;;;;;;;;;;;"1703";"2014-07-21 11:29:23.820";"FINISHED";"UNPLEASANT";"success";"439";"2014-07-21 11:29:22.117";"IAT_UPUP.csv";"1";"A2";;;;;;;;;;
"FB12AS";;;"Windows 7";"Rachel's Experiment (SCIAT)";"1.0";"1";"1";"1";"1";"1";"1";"2014-07-21 11:18:25.021";"2014-07-21 11:30:25.999";"1";"0";"1";"0";"0";"222";"221";"module.IAT_Block1.exec-7809.IAT_block1";;;;;;;;;;;;;;;;;;;;;;;;;;;;;;;;;;;;;;;;;;;;;;;;;;;;;;;;;;;;;;;;;;;;;;"1701";"2014-07-21 11:29:25.548";"FINISHED";"NEUTRAL";"success";"397";"2014-07-21 11:29:23.846";"IAT_UPUP.csv";"2";"adequate";;;;;;;;;;
"FB12AS";;;"Windows 7";"Rachel's Experiment (SCIAT)";"1.0";"1";"1";"1";"1";"1";"1";"2014-07-21 11:18:25.021";"2014-07-21 11:30:25.999";"1";"0";"1";"0";"0";"223";"222";"module.IAT_Block1.exec-7809.IAT_block1";;;;;;;;;;;;;;;;;;;;;;;;;;;;;;;;;;;;;;;;;;;;;;;;;;;;;;;;;;;;;;;;;;;;;;"1703";"2014-07-21 11:29:27.278";"FINISHED";"UNPLEASANT";"success";"447";"2014-07-21 11:29:25.574";"IAT_UPUP.csv";"1";"A2";;;;;;;;;;
"FB12AS";;;"Windows 7";"Rachel's Experiment (SCIAT)";"1.0";"1";"1";"1";"1";"1";"1";"2014-07-21 11:18:25.021";"2014-07-21 11:30:25.999";"1";"0";"1";"0";"0";"224";"223";"module.IAT_Block1.exec-7809.IAT_block1";;;;;;;;;;;;;;;;;;;;;;;;;;;;;;;;;;;;;;;;;;;;;;;;;;;;;;;;;;;;;;;;;;;;;;"1702";"2014-07-21 11:29:29.007";"FINISHED";"NEUTRAL";"success";"404";"2014-07-21 11:29:27.304";"IAT_UPUP.csv";"2";"moderate";;;;;;;;;;
"FB12AS";;;"Windows 7";"Rachel's Experiment (SCIAT)";"1.0";"1";"1";"1";"1";"1";"1";"2014-07-21 11:18:25.021";"2014-07-21 11:30:25.999";"1";"0";"1";"0";"0";"225";"224";"module.IAT_Block1.exec-7809.IAT_block1";;;;;;;;;;;;;;;;;;;;;;;;;;;;;;;;;;;;;;;;;;;;;;;;;;;;;;;;;;;;;;;;;;;;;;"1702";"2014-07-21 11:29:30.736";"FINISHED";"UNPLEASANT";"success";"475";"2014-07-21 11:29:29.033";"IAT_UPUP.csv";"1";"A3";;;;;;;;;;
"FB12AS";;;"Windows 7";"Rachel's Experiment (SCIAT)";"1.0";"1";"1";"1";"1";"1";"1";"2014-07-21 11:18:25.021";"2014-07-21 11:30:25.999";"1";"0";"1";"0";"0";"226";"225";"module.IAT_Block1.exec-7809.IAT_block1";;;;;;;;;;;;;;;;;;;;;;;;;;;;;;;;;;;;;;;;;;;;;;;;;;;;;;;;;;;;;;;;;;;;;;"1703";"2014-07-21 11:29:32.472";"FINISHED";"NEUTRAL";"success";"607";"2014-07-21 11:29:30.768";"IAT_UPUP.csv";"2";"general";;;;;;;;;;
"FB12AS";;;"Windows 7";"Rachel's Experiment (SCIAT)";"1.0";"1";"1";"1";"1";"1";"1";"2014-07-21 11:18:25.021";"2014-07-21 11:30:25.999";"1";"0";"1";"0";"0";"227";"226";"module.IAT_Block1.exec-7809.IAT_block1";;;;;;;;;;;;;;;;;;;;;;;;;;;;;;;;;;;;;;;;;;;;;;;;;;;;;;;;;;;;;;;;;;;;;;"1702";"2014-07-21 11:29:34.203";"FINISHED";"UNPLEASANT";"success";"452";"2014-07-21 11:29:32.500";"IAT_UPUP.csv";"1";"A1";;;;;;;;;;
"FB12AS";;;"Windows 7";"Rachel's Experiment (SCIAT)";"1.0";"1";"1";"1";"1";"1";"1";"2014-07-21 11:18:25.021";"2014-07-21 11:30:25.999";"1";"0";"1";"0";"0";"228";"227";"module.IAT_Block1.exec-7809.IAT_block1";;;;;;;;;;;;;;;;;;;;;;;;;;;;;;;;;;;;;;;;;;;;;;;;;;;;;;;;;;;;;;;;;;;;;;"1702";"2014-07-21 11:29:35.930";"FINISHED";"UNPLEASANT";"success";"450";"2014-07-21 11:29:34.228";"IAT_UPUP.csv";"1";"A5";;;;;;;;;;
"FB12AS";;;"Windows 7";"Rachel's Experiment (SCIAT)";"1.0";"1";"1";"1";"1";"1";"1";"2014-07-21 11:18:25.021";"2014-07-21 11:30:25.999";"1";"0";"1";"0";"0";"229";"228";"module.IAT_Block1.exec-7809.IAT_block1";;;;;;;;;;;;;;;;;;;;;;;;;;;;;;;;;;;;;;;;;;;;;;;;;;;;;;;;;;;;;;;;;;;;;;"1702";"2014-07-21 11:29:37.660";"FINISHED";"NEUTRAL";"success";"540";"2014-07-21 11:29:35.957";"IAT_UPUP.csv";"2";"ordinary";;;;;;;;;;
"FB12AS";;;"Windows 7";"Rachel's Experiment (SCIAT)";"1.0";"1";"1";"1";"1";"1";"1";"2014-07-21 11:18:25.021";"2014-07-21 11:30:25.999";"1";"0";"1";"0";"0";"230";"229";"module.IAT_Block1.exec-7809.IAT_block1";;;;;;;;;;;;;;;;;;;;;;;;;;;;;;;;;;;;;;;;;;;;;;;;;;;;;;;;;;;;;;;;;;;;;;"1702";"2014-07-21 11:29:39.390";"FINISHED";"NEUTRAL";"failure";"408";"2014-07-21 11:29:37.687";"IAT_UPUP.csv";"1";"bad";;;;;;;;;;
"FB12AS";;;"Windows 7";"Rachel's Experiment (SCIAT)";"1.0";"1";"1";"1";"1";"1";"1";"2014-07-21 11:18:25.021";"2014-07-21 11:30:25.999";"1";"0";"1";"0";"0";"231";"230";"module.IAT_Block1.exec-7809.IAT_block1";;;;;;;;;;;;;;;;;;;;;;;;;;;;;;;;;;;;;;;;;;;;;;;;;;;;;;;;;;;;;;;;;;;;;;"1702";"2014-07-21 11:29:41.119";"FINISHED";"NEUTRAL";"success";"568";"2014-07-21 11:29:39.416";"IAT_UPUP.csv";"2";"average";;;;;;;;;;
"FB12AS";;;"Windows 7";"Rachel's Experiment (SCIAT)";"1.0";"1";"1";"1";"1";"1";"1";"2014-07-21 11:18:25.021";"2014-07-21 11:30:25.999";"1";"0";"1";"0";"0";"232";"231";"module.IAT_Block1.exec-7809.IAT_block1";;;;;;;;;;;;;;;;;;;;;;;;;;;;;;;;;;;;;;;;;;;;;;;;;;;;;;;;;;;;;;;;;;;;;;"1703";"2014-07-21 11:29:42.850";"FINISHED";"UNPLEASANT";"success";"603";"2014-07-21 11:29:41.147";"IAT_UPUP.csv";"1";"awful";;;;;;;;;;
"FB12AS";;;"Windows 7";"Rachel's Experiment (SCIAT)";"1.0";"1";"1";"1";"1";"1";"1";"2014-07-21 11:18:25.021";"2014-07-21 11:30:25.999";"1";"0";"1";"0";"0";"233";"232";"module.IAT_Block1.exec-7809.IAT_block1";;;;;;;;;;;;;;;;;;;;;;;;;;;;;;;;;;;;;;;;;;;;;;;;;;;;;;;;;;;;;;;;;;;;;;"1702";"2014-07-21 11:29:44.580";"FINISHED";"NEUTRAL";"success";"482";"2014-07-21 11:29:42.877";"IAT_UPUP.csv";"2";"general";;;;;;;;;;
"FB12AS";;;"Windows 7";"Rachel's Experiment (SCIAT)";"1.0";"1";"1";"1";"1";"1";"1";"2014-07-21 11:18:25.021";"2014-07-21 11:30:25.999";"1";"0";"1";"0";"0";"234";"233";"module.IAT_Block1.exec-7809.IAT_block1";;;;;;;;;;;;;;;;;;;;;;;;;;;;;;;;;;;;;;;;;;;;;;;;;;;;;;;;;;;;;;;;;;;;;;"1701";"2014-07-21 11:29:46.309";"FINISHED";"UNPLEASANT";"success";"381";"2014-07-21 11:29:44.607";"IAT_UPUP.csv";"1";"A5";;;;;;;;;;
