"user.name";"user.yearOfBirth";"user.sex";"user.osName";"module.name";"module.version";"module.online.subject.code";"module.online.study.id";"module.online.module.nr";"module.online.group.nr";"session.id";"session.index";"session.startTime";"session.endTime";"session.completed";"session.node-4310.conditionType";"session.node-7929.blockOrder";"session.node-7929.IATorder";"session.node-7929.keyOrder";"trial.id";"trial.index";"trial.name";"trial.GoNoGo1.durationTime";"trial.GoNoGo1.endTime";"trial.GoNoGo1.Error Type";"trial.GoNoGo1.icon";"trial.GoNoGo1.location";"trial.GoNoGo1.outcome";"trial.GoNoGo1.response";"trial.GoNoGo1.result";"trial.GoNoGo1.RT";"trial.GoNoGo1.signal";"trial.GoNoGo1.startTime";"trial.GoNoGo1.stimulus type";"trial.GoNoGo2.durationTime";"trial.GoNoGo2.endTime";"trial.GoNoGo2.Error Type";"trial.GoNoGo2.icon";"trial.GoNoGo2.location";"trial.GoNoGo2.outcome";"trial.GoNoGo2.response";"trial.GoNoGo2.result";"trial.GoNoGo2.RT";"trial.GoNoGo2.signal";"trial.GoNoGo2.startTime";"trial.GoNoGo2.stimulus type";"trial.GoNoGo_Practice.durationTime";"trial.GoNoGo_Practice.endTime";"trial.GoNoGo_Practice.icon";"trial.GoNoGo_Practice.location";"trial.GoNoGo_Practice.outcome";"trial.GoNoGo_Practice.response";"trial.GoNoGo_Practice.result";"trial.GoNoGo_Practice.RT";"trial.GoNoGo_Practice.signal";"trial.GoNoGo_Practice.startTime";"trial.GoNoGo_Practice.stimulus type";"trial.GoNoGo_Tutorial.durationTime";"trial.GoNoGo_Tutorial.endTime";"trial.GoNoGo_Tutorial.icon";"trial.GoNoGo_Tutorial.location";"trial.GoNoGo_Tutorial.outcome";"trial.GoNoGo_Tutorial.response";"trial.GoNoGo_Tutorial.result";"trial.GoNoGo_Tutorial.RT";"trial.GoNoGo_Tutorial.signal";"trial.GoNoGo_Tutorial.startTime"
"highlighter";"1995";;"Windows 8";"Rachel's Experiment (SCIAT)";"1.0";"1";"1";"1";"1";"1";"1";"2015-03-09 16:44:43.543";"2015-03-09 16:49:55.528";"1";"1";"0";"1";"1";"1";"0";"module.GoNoGotutorial.exec-9669.GoNoGo_Tutorial";;;;;;;;;;;;;;;;;;;;;;;;;;;;;;;;;;;;"3994";"2015-03-09 16:45:26.404";"leftResponse";"0";"FINISHED";"NONE";"failure";"0";"0";"2015-03-09 16:45:22.404"
"highlighter";"1995";;"Windows 8";"Rachel's Experiment (SCIAT)";"1.0";"1";"1";"1";"1";"1";"1";"2015-03-09 16:44:43.543";"2015-03-09 16:49:55.528";"1";"1";"0";"1";"1";"2";"1";"module.GoNoGotutorial.exec-9669.GoNoGo_Tutorial";;;;;;;;;;;;;;;;;;;;;;;;;;;;;;;;;;;;"4001";"2015-03-09 16:45:32.121";"rightResponse";"1";"FINISHED";"NONE";"failure";"0";"0";"2015-03-09 16:45:28.118"
"highlighter";"1995";;"Windows 8";"Rachel's Experiment (SCIAT)";"1.0";"1";"1";"1";"1";"1";"1";"2015-03-09 16:44:43.543";"2015-03-09 16:49:55.528";"1";"1";"0";"1";"1";"3";"2";"module.GoNoGotutorial.exec-9669.GoNoGo_Tutorial";;;;;;;;;;;;;;;;;;;;;;;;;;;;;;;;;;;;"4003";"2015-03-09 16:45:37.488";"signalResponse";"0";"FINISHED";"NONE";"success";"0";"1";"2015-03-09 16:45:33.474"
"highlighter";"1995";;"Windows 8";"Rachel's Experiment (SCIAT)";"1.0";"1";"1";"1";"1";"1";"1";"2015-03-09 16:44:43.543";"2015-03-09 16:49:55.528";"1";"1";"0";"1";"1";"4";"3";"module.GoNoGopractice.exec-6499.GoNoGo_Practice";;;;;;;;;;;;;;;;;;;;;;;;;"1979";"2015-03-09 16:45:47.935";"18";"0";"FINISHED";"LEFT";"success";"403";"0";"2015-03-09 16:45:45.955";"3";;;;;;;;;;
"highlighter";"1995";;"Windows 8";"Rachel's Experiment (SCIAT)";"1.0";"1";"1";"1";"1";"1";"1";"2015-03-09 16:44:43.543";"2015-03-09 16:49:55.528";"1";"1";"0";"1";"1";"5";"4";"module.GoNoGopractice.exec-6499.GoNoGo_Practice";;;;;;;;;;;;;;;;;;;;;;;;;"1956";"2015-03-09 16:45:51.272";"21";"1";"FINISHED";"RIGHT";"success";"372";"0";"2015-03-09 16:45:49.304";"3";;;;;;;;;;
"highlighter";"1995";;"Windows 8";"Rachel's Experiment (SCIAT)";"1.0";"1";"1";"1";"1";"1";"1";"2015-03-09 16:44:43.543";"2015-03-09 16:49:55.528";"1";"1";"0";"1";"1";"6";"5";"module.GoNoGopractice.exec-6499.GoNoGo_Practice";;;;;;;;;;;;;;;;;;;;;;;;;"1954";"2015-03-09 16:45:54.588";"14";"1";"FINISHED";"RIGHT";"failure";"393";"1";"2015-03-09 16:45:52.633";"2";;;;;;;;;;
"highlighter";"1995";;"Windows 8";"Rachel's Experiment (SCIAT)";"1.0";"1";"1";"1";"1";"1";"1";"2015-03-09 16:44:43.543";"2015-03-09 16:49:55.528";"1";"1";"0";"1";"1";"7";"6";"module.GoNoGopractice.exec-6499.GoNoGo_Practice";;;;;;;;;;;;;;;;;;;;;;;;;"1954";"2015-03-09 16:45:57.903";"26";"0";"FINISHED";"LEFT";"success";"352";"0";"2015-03-09 16:45:55.941";"3";;;;;;;;;;
"highlighter";"1995";;"Windows 8";"Rachel's Experiment (SCIAT)";"1.0";"1";"1";"1";"1";"1";"1";"2015-03-09 16:44:43.543";"2015-03-09 16:49:55.528";"1";"1";"0";"1";"1";"8";"7";"module.GoNoGopractice.exec-6499.GoNoGo_Practice";;;;;;;;;;;;;;;;;;;;;;;;;"1958";"2015-03-09 16:46:01.226";"2";"0";"FINISHED";"LEFT";"success";"454";"0";"2015-03-09 16:45:59.255";"1";;;;;;;;;;
"highlighter";"1995";;"Windows 8";"Rachel's Experiment (SCIAT)";"1.0";"1";"1";"1";"1";"1";"1";"2015-03-09 16:44:43.543";"2015-03-09 16:49:55.528";"1";"1";"0";"1";"1";"9";"8";"module.GoNoGopractice.exec-6499.GoNoGo_Practice";;;;;;;;;;;;;;;;;;;;;;;;;"1958";"2015-03-09 16:46:04.523";"30";"0";"FINISHED";"LEFT";"failure";"341";"1";"2015-03-09 16:46:02.565";"3";;;;;;;;;;
"highlighter";"1995";;"Windows 8";"Rachel's Experiment (SCIAT)";"1.0";"1";"1";"1";"1";"1";"1";"2015-03-09 16:44:43.543";"2015-03-09 16:49:55.528";"1";"1";"0";"1";"1";"10";"9";"module.GoNoGopractice.exec-6499.GoNoGo_Practice";;;;;;;;;;;;;;;;;;;;;;;;;"1956";"2015-03-09 16:46:07.855";"6";"1";"FINISHED";"RIGHT";"failure";"292";"1";"2015-03-09 16:46:05.887";"1";;;;;;;;;;
"highlighter";"1995";;"Windows 8";"Rachel's Experiment (SCIAT)";"1.0";"1";"1";"1";"1";"1";"1";"2015-03-09 16:44:43.543";"2015-03-09 16:49:55.528";"1";"1";"0";"1";"1";"11";"10";"module.GoNoGopractice.exec-6499.GoNoGo_Practice";;;;;;;;;;;;;;;;;;;;;;;;;"1956";"2015-03-09 16:46:11.171";"34";"0";"FINISHED";"LEFT";"success";"353";"0";"2015-03-09 16:46:09.203";"3";;;;;;;;;;
"highlighter";"1995";;"Windows 8";"Rachel's Experiment (SCIAT)";"1.0";"1";"1";"1";"1";"1";"1";"2015-03-09 16:44:43.543";"2015-03-09 16:49:55.528";"1";"1";"0";"1";"1";"12";"11";"module.GoNoGopractice.exec-6499.GoNoGo_Practice";;;;;;;;;;;;;;;;;;;;;;;;;"1952";"2015-03-09 16:46:14.486";"23";"1";"FINISHED";"RIGHT";"success";"949";"0";"2015-03-09 16:46:12.533";"3";;;;;;;;;;
"highlighter";"1995";;"Windows 8";"Rachel's Experiment (SCIAT)";"1.0";"1";"1";"1";"1";"1";"1";"2015-03-09 16:44:43.543";"2015-03-09 16:49:55.528";"1";"1";"0";"1";"1";"13";"12";"module.GoNoGopractice.exec-6499.GoNoGo_Practice";;;;;;;;;;;;;;;;;;;;;;;;;"1955";"2015-03-09 16:46:17.788";"13";"0";"FINISHED";"LEFT";"failure";"415";"1";"2015-03-09 16:46:15.831";"2";;;;;;;;;;
"highlighter";"1995";;"Windows 8";"Rachel's Experiment (SCIAT)";"1.0";"1";"1";"1";"1";"1";"1";"2015-03-09 16:44:43.543";"2015-03-09 16:49:55.528";"1";"1";"0";"1";"1";"14";"13";"module.GoNoGopractice.exec-6499.GoNoGo_Practice";;;;;;;;;;;;;;;;;;;;;;;;;"1960";"2015-03-09 16:46:21.127";"3";"1";"FINISHED";"NONE";"failure";"0";"0";"2015-03-09 16:46:19.154";"1";;;;;;;;;;
"highlighter";"1995";;"Windows 8";"Rachel's Experiment (SCIAT)";"1.0";"1";"1";"1";"1";"1";"1";"2015-03-09 16:44:43.543";"2015-03-09 16:49:55.528";"1";"1";"0";"1";"1";"15";"14";"module.GoNoGopractice.exec-6499.GoNoGo_Practice";;;;;;;;;;;;;;;;;;;;;;;;;"1956";"2015-03-09 16:46:24.429";"27";"1";"FINISHED";"NONE";"success";"0";"1";"2015-03-09 16:46:22.461";"3";;;;;;;;;;
"highlighter";"1995";;"Windows 8";"Rachel's Experiment (SCIAT)";"1.0";"1";"1";"1";"1";"1";"1";"2015-03-09 16:44:43.543";"2015-03-09 16:49:55.528";"1";"1";"0";"1";"1";"16";"15";"module.training_block1.exec-2048.GoNoGo1";"1264";"2015-03-09 16:46:35.686";"NST_correctLoc";"22";"0";"FINISHED";"LEFT";"success";"648";"0";"2015-03-09 16:46:34.422";"3";;;;;;;;;;;;;;;;;;;;;;;;;;;;;;;;;
"highlighter";"1995";;"Windows 8";"Rachel's Experiment (SCIAT)";"1.0";"1";"1";"1";"1";"1";"1";"2015-03-09 16:44:43.543";"2015-03-09 16:49:55.528";"1";"1";"0";"1";"1";"17";"16";"module.training_block1.exec-2048.GoNoGo1";"1252";"2015-03-09 16:46:38.301";"NST_correctLoc";"33";"1";"FINISHED";"RIGHT";"success";"342";"0";"2015-03-09 16:46:37.048";"3";;;;;;;;;;;;;;;;;;;;;;;;;;;;;;;;;
"highlighter";"1995";;"Windows 8";"Rachel's Experiment (SCIAT)";"1.0";"1";"1";"1";"1";"1";"1";"2015-03-09 16:44:43.543";"2015-03-09 16:49:55.528";"1";"1";"0";"1";"1";"18";"17";"module.training_block1.exec-2048.GoNoGo1";"1249";"2015-03-09 16:46:40.906";"ST_failedStop";"5";"0";"FINISHED";"LEFT";"failure";"384";"1";"2015-03-09 16:46:39.655";"1";;;;;;;;;;;;;;;;;;;;;;;;;;;;;;;;;
"highlighter";"1995";;"Windows 8";"Rachel's Experiment (SCIAT)";"1.0";"1";"1";"1";"1";"1";"1";"2015-03-09 16:44:43.543";"2015-03-09 16:49:55.528";"1";"1";"0";"1";"1";"19";"18";"module.training_block1.exec-2048.GoNoGo1";"1258";"2015-03-09 16:46:43.517";"NST_correctLoc";"26";"0";"FINISHED";"LEFT";"success";"343";"0";"2015-03-09 16:46:42.259";"3";;;;;;;;;;;;;;;;;;;;;;;;;;;;;;;;;
"highlighter";"1995";;"Windows 8";"Rachel's Experiment (SCIAT)";"1.0";"1";"1";"1";"1";"1";"1";"2015-03-09 16:44:43.543";"2015-03-09 16:49:55.528";"1";"1";"0";"1";"1";"20";"19";"module.training_block1.exec-2048.GoNoGo1";"1250";"2015-03-09 16:46:46.117";"ST_failedStop";"0";"0";"FINISHED";"LEFT";"failure";"372";"1";"2015-03-09 16:46:44.854";"1";;;;;;;;;;;;;;;;;;;;;;;;;;;;;;;;;
"highlighter";"1995";;"Windows 8";"Rachel's Experiment (SCIAT)";"1.0";"1";"1";"1";"1";"1";"1";"2015-03-09 16:44:43.543";"2015-03-09 16:49:55.528";"1";"1";"0";"1";"1";"21";"20";"module.training_block1.exec-2048.GoNoGo1";"1251";"2015-03-09 16:46:48.728";"NST_correctLoc";"23";"1";"FINISHED";"RIGHT";"success";"329";"0";"2015-03-09 16:46:47.477";"3";;;;;;;;;;;;;;;;;;;;;;;;;;;;;;;;;
"highlighter";"1995";;"Windows 8";"Rachel's Experiment (SCIAT)";"1.0";"1";"1";"1";"1";"1";"1";"2015-03-09 16:44:43.543";"2015-03-09 16:49:55.528";"1";"1";"0";"1";"1";"22";"21";"module.training_block1.exec-2048.GoNoGo1";"1236";"2015-03-09 16:46:51.305";"NST_correctLoc";"15";"1";"FINISHED";"RIGHT";"success";"357";"0";"2015-03-09 16:46:50.054";"2";;;;;;;;;;;;;;;;;;;;;;;;;;;;;;;;;
"highlighter";"1995";;"Windows 8";"Rachel's Experiment (SCIAT)";"1.0";"1";"1";"1";"1";"1";"1";"2015-03-09 16:44:43.543";"2015-03-09 16:49:55.528";"1";"1";"0";"1";"1";"23";"22";"module.training_block1.exec-2048.GoNoGo1";"1261";"2015-03-09 16:46:53.901";"ST_failedStop";"3";"0";"FINISHED";"LEFT";"failure";"363";"1";"2015-03-09 16:46:52.639";"1";;;;;;;;;;;;;;;;;;;;;;;;;;;;;;;;;
"highlighter";"1995";;"Windows 8";"Rachel's Experiment (SCIAT)";"1.0";"1";"1";"1";"1";"1";"1";"2015-03-09 16:44:43.543";"2015-03-09 16:49:55.528";"1";"1";"0";"1";"1";"24";"23";"module.training_block1.exec-2048.GoNoGo1";"1254";"2015-03-09 16:46:56.502";"NST_correctLoc";"12";"1";"FINISHED";"RIGHT";"success";"296";"0";"2015-03-09 16:46:55.238";"2";;;;;;;;;;;;;;;;;;;;;;;;;;;;;;;;;
"highlighter";"1995";;"Windows 8";"Rachel's Experiment (SCIAT)";"1.0";"1";"1";"1";"1";"1";"1";"2015-03-09 16:44:43.543";"2015-03-09 16:49:55.528";"1";"1";"0";"1";"1";"25";"24";"module.training_block1.exec-2048.GoNoGo1";"1250";"2015-03-09 16:46:59.098";"ST_failedStop";"4";"0";"FINISHED";"LEFT";"failure";"289";"1";"2015-03-09 16:46:57.847";"1";;;;;;;;;;;;;;;;;;;;;;;;;;;;;;;;;
"highlighter";"1995";;"Windows 8";"Rachel's Experiment (SCIAT)";"1.0";"1";"1";"1";"1";"1";"1";"2015-03-09 16:44:43.543";"2015-03-09 16:49:55.528";"1";"1";"0";"1";"1";"26";"25";"module.training_block1.exec-2048.GoNoGo1";"1239";"2015-03-09 16:47:01.704";"NST_correctLoc";"11";"0";"FINISHED";"LEFT";"success";"310";"0";"2015-03-09 16:47:00.453";"2";;;;;;;;;;;;;;;;;;;;;;;;;;;;;;;;;
"highlighter";"1995";;"Windows 8";"Rachel's Experiment (SCIAT)";"1.0";"1";"1";"1";"1";"1";"1";"2015-03-09 16:44:43.543";"2015-03-09 16:49:55.528";"1";"1";"0";"1";"1";"27";"26";"module.training_block1.exec-2048.GoNoGo1";"1241";"2015-03-09 16:47:04.288";"ST_failedStop";"8";"1";"FINISHED";"RIGHT";"failure";"342";"1";"2015-03-09 16:47:03.038";"1";;;;;;;;;;;;;;;;;;;;;;;;;;;;;;;;;
"highlighter";"1995";;"Windows 8";"Rachel's Experiment (SCIAT)";"1.0";"1";"1";"1";"1";"1";"1";"2015-03-09 16:44:43.543";"2015-03-09 16:49:55.528";"1";"1";"0";"1";"1";"28";"27";"module.training_block1.exec-2048.GoNoGo1";"1252";"2015-03-09 16:47:06.885";"NST_correctLoc";"17";"0";"FINISHED";"LEFT";"success";"316";"0";"2015-03-09 16:47:05.633";"2";;;;;;;;;;;;;;;;;;;;;;;;;;;;;;;;;
"highlighter";"1995";;"Windows 8";"Rachel's Experiment (SCIAT)";"1.0";"1";"1";"1";"1";"1";"1";"2015-03-09 16:44:43.543";"2015-03-09 16:49:55.528";"1";"1";"0";"1";"1";"29";"28";"module.training_block1.exec-2048.GoNoGo1";"1251";"2015-03-09 16:47:09.480";"ST_failedStop";"25";"0";"FINISHED";"LEFT";"failure";"328";"1";"2015-03-09 16:47:08.229";"3";;;;;;;;;;;;;;;;;;;;;;;;;;;;;;;;;
"highlighter";"1995";;"Windows 8";"Rachel's Experiment (SCIAT)";"1.0";"1";"1";"1";"1";"1";"1";"2015-03-09 16:44:43.543";"2015-03-09 16:49:55.528";"1";"1";"0";"1";"1";"30";"29";"module.training_block1.exec-2048.GoNoGo1";"1253";"2015-03-09 16:47:12.068";"ST_failedStop";"7";"0";"FINISHED";"LEFT";"failure";"321";"1";"2015-03-09 16:47:10.815";"1";;;;;;;;;;;;;;;;;;;;;;;;;;;;;;;;;
"highlighter";"1995";;"Windows 8";"Rachel's Experiment (SCIAT)";"1.0";"1";"1";"1";"1";"1";"1";"2015-03-09 16:44:43.543";"2015-03-09 16:49:55.528";"1";"1";"0";"1";"1";"31";"30";"module.training_block1.exec-2048.GoNoGo1";"1256";"2015-03-09 16:47:14.685";"ST_failedStop";"32";"1";"FINISHED";"RIGHT";"failure";"335";"1";"2015-03-09 16:47:13.428";"3";;;;;;;;;;;;;;;;;;;;;;;;;;;;;;;;;
"highlighter";"1995";;"Windows 8";"Rachel's Experiment (SCIAT)";"1.0";"1";"1";"1";"1";"1";"1";"2015-03-09 16:44:43.543";"2015-03-09 16:49:55.528";"1";"1";"0";"1";"1";"32";"31";"module.training_block1.exec-2048.GoNoGo1";"1263";"2015-03-09 16:47:17.284";"ST_failedStop";"30";"1";"FINISHED";"RIGHT";"failure";"335";"1";"2015-03-09 16:47:16.022";"3";;;;;;;;;;;;;;;;;;;;;;;;;;;;;;;;;
"highlighter";"1995";;"Windows 8";"Rachel's Experiment (SCIAT)";"1.0";"1";"1";"1";"1";"1";"1";"2015-03-09 16:44:43.543";"2015-03-09 16:49:55.528";"1";"1";"0";"1";"1";"33";"32";"module.training_block1.exec-2048.GoNoGo1";"1261";"2015-03-09 16:47:19.883";"NST_correctLoc";"18";"0";"FINISHED";"LEFT";"success";"340";"0";"2015-03-09 16:47:18.622";"3";;;;;;;;;;;;;;;;;;;;;;;;;;;;;;;;;
"highlighter";"1995";;"Windows 8";"Rachel's Experiment (SCIAT)";"1.0";"1";"1";"1";"1";"1";"1";"2015-03-09 16:44:43.543";"2015-03-09 16:49:55.528";"1";"1";"0";"1";"1";"34";"33";"module.training_block1.exec-2048.GoNoGo1";"1251";"2015-03-09 16:47:22.484";"NST_correctLoc";"20";"0";"FINISHED";"LEFT";"success";"314";"0";"2015-03-09 16:47:21.232";"3";;;;;;;;;;;;;;;;;;;;;;;;;;;;;;;;;
"highlighter";"1995";;"Windows 8";"Rachel's Experiment (SCIAT)";"1.0";"1";"1";"1";"1";"1";"1";"2015-03-09 16:44:43.543";"2015-03-09 16:49:55.528";"1";"1";"0";"1";"1";"35";"34";"module.training_block1.exec-2048.GoNoGo1";"1254";"2015-03-09 16:47:25.084";"NST_correctLoc";"28";"1";"FINISHED";"RIGHT";"success";"294";"0";"2015-03-09 16:47:23.829";"3";;;;;;;;;;;;;;;;;;;;;;;;;;;;;;;;;
"highlighter";"1995";;"Windows 8";"Rachel's Experiment (SCIAT)";"1.0";"1";"1";"1";"1";"1";"1";"2015-03-09 16:44:43.543";"2015-03-09 16:49:55.528";"1";"1";"0";"1";"1";"36";"35";"module.training_block1.exec-2048.GoNoGo1";"1250";"2015-03-09 16:47:27.674";"NST_correctLoc";"13";"1";"FINISHED";"RIGHT";"success";"312";"0";"2015-03-09 16:47:26.424";"2";;;;;;;;;;;;;;;;;;;;;;;;;;;;;;;;;
"highlighter";"1995";;"Windows 8";"Rachel's Experiment (SCIAT)";"1.0";"1";"1";"1";"1";"1";"1";"2015-03-09 16:44:43.543";"2015-03-09 16:49:55.528";"1";"1";"0";"1";"1";"37";"36";"module.training_block1.exec-2048.GoNoGo1";"1263";"2015-03-09 16:47:30.284";"ST_failedStop";"34";"0";"FINISHED";"LEFT";"failure";"291";"1";"2015-03-09 16:47:29.021";"3";;;;;;;;;;;;;;;;;;;;;;;;;;;;;;;;;
"highlighter";"1995";;"Windows 8";"Rachel's Experiment (SCIAT)";"1.0";"1";"1";"1";"1";"1";"1";"2015-03-09 16:44:43.543";"2015-03-09 16:49:55.528";"1";"1";"0";"1";"1";"38";"37";"module.training_block1.exec-2048.GoNoGo1";"1250";"2015-03-09 16:47:32.873";"ST_failedStop";"21";"0";"FINISHED";"LEFT";"failure";"316";"1";"2015-03-09 16:47:31.621";"3";;;;;;;;;;;;;;;;;;;;;;;;;;;;;;;;;
"highlighter";"1995";;"Windows 8";"Rachel's Experiment (SCIAT)";"1.0";"1";"1";"1";"1";"1";"1";"2015-03-09 16:44:43.543";"2015-03-09 16:49:55.528";"1";"1";"0";"1";"1";"39";"38";"module.training_block1.exec-2048.GoNoGo1";"1241";"2015-03-09 16:47:35.452";"NST_correctLoc";"9";"1";"FINISHED";"RIGHT";"success";"285";"0";"2015-03-09 16:47:34.199";"2";;;;;;;;;;;;;;;;;;;;;;;;;;;;;;;;;
"highlighter";"1995";;"Windows 8";"Rachel's Experiment (SCIAT)";"1.0";"1";"1";"1";"1";"1";"1";"2015-03-09 16:44:43.543";"2015-03-09 16:49:55.528";"1";"1";"0";"1";"1";"40";"39";"module.training_block1.exec-2048.GoNoGo1";"1255";"2015-03-09 16:47:38.052";"NST_correctLoc";"14";"1";"FINISHED";"RIGHT";"success";"330";"0";"2015-03-09 16:47:36.793";"2";;;;;;;;;;;;;;;;;;;;;;;;;;;;;;;;;
"highlighter";"1995";;"Windows 8";"Rachel's Experiment (SCIAT)";"1.0";"1";"1";"1";"1";"1";"1";"2015-03-09 16:44:43.543";"2015-03-09 16:49:55.528";"1";"1";"0";"1";"1";"41";"40";"module.training_block1.exec-2048.GoNoGo1";"1239";"2015-03-09 16:47:40.649";"NST_correctLoc";"10";"1";"FINISHED";"RIGHT";"success";"290";"0";"2015-03-09 16:47:39.398";"2";;;;;;;;;;;;;;;;;;;;;;;;;;;;;;;;;
"highlighter";"1995";;"Windows 8";"Rachel's Experiment (SCIAT)";"1.0";"1";"1";"1";"1";"1";"1";"2015-03-09 16:44:43.543";"2015-03-09 16:49:55.528";"1";"1";"0";"1";"1";"42";"41";"module.training_block1.exec-2048.GoNoGo1";"1240";"2015-03-09 16:47:43.224";"ST_failedStop";"1";"1";"FINISHED";"RIGHT";"failure";"313";"1";"2015-03-09 16:47:41.974";"1";;;;;;;;;;;;;;;;;;;;;;;;;;;;;;;;;
"highlighter";"1995";;"Windows 8";"Rachel's Experiment (SCIAT)";"1.0";"1";"1";"1";"1";"1";"1";"2015-03-09 16:44:43.543";"2015-03-09 16:49:55.528";"1";"1";"0";"1";"1";"43";"42";"module.training_block1.exec-2048.GoNoGo1";"1244";"2015-03-09 16:47:45.804";"ST_failedStop";"24";"0";"FINISHED";"LEFT";"failure";"334";"1";"2015-03-09 16:47:44.553";"3";;;;;;;;;;;;;;;;;;;;;;;;;;;;;;;;;
"highlighter";"1995";;"Windows 8";"Rachel's Experiment (SCIAT)";"1.0";"1";"1";"1";"1";"1";"1";"2015-03-09 16:44:43.543";"2015-03-09 16:49:55.528";"1";"1";"0";"1";"1";"44";"43";"module.training_block1.exec-2048.GoNoGo1";"1255";"2015-03-09 16:47:48.399";"ST_failedStop";"35";"1";"FINISHED";"RIGHT";"failure";"295";"1";"2015-03-09 16:47:47.136";"3";;;;;;;;;;;;;;;;;;;;;;;;;;;;;;;;;
"highlighter";"1995";;"Windows 8";"Rachel's Experiment (SCIAT)";"1.0";"1";"1";"1";"1";"1";"1";"2015-03-09 16:44:43.543";"2015-03-09 16:49:55.528";"1";"1";"0";"1";"1";"45";"44";"module.training_block1.exec-2048.GoNoGo1";"1253";"2015-03-09 16:47:50.999";"NST_correctLoc";"16";"0";"FINISHED";"LEFT";"success";"335";"0";"2015-03-09 16:47:49.745";"2";;;;;;;;;;;;;;;;;;;;;;;;;;;;;;;;;
"highlighter";"1995";;"Windows 8";"Rachel's Experiment (SCIAT)";"1.0";"1";"1";"1";"1";"1";"1";"2015-03-09 16:44:43.543";"2015-03-09 16:49:55.528";"1";"1";"0";"1";"1";"46";"45";"module.training_block1.exec-2048.GoNoGo1";"1249";"2015-03-09 16:47:53.572";"ST_failedStop";"6";"1";"FINISHED";"RIGHT";"failure";"285";"1";"2015-03-09 16:47:52.321";"1";;;;;;;;;;;;;;;;;;;;;;;;;;;;;;;;;
"highlighter";"1995";;"Windows 8";"Rachel's Experiment (SCIAT)";"1.0";"1";"1";"1";"1";"1";"1";"2015-03-09 16:44:43.543";"2015-03-09 16:49:55.528";"1";"1";"0";"1";"1";"47";"46";"module.training_block1.exec-2048.GoNoGo1";"1264";"2015-03-09 16:47:56.184";"ST_failedStop";"2";"0";"FINISHED";"LEFT";"failure";"277";"1";"2015-03-09 16:47:54.920";"1";;;;;;;;;;;;;;;;;;;;;;;;;;;;;;;;;
"highlighter";"1995";;"Windows 8";"Rachel's Experiment (SCIAT)";"1.0";"1";"1";"1";"1";"1";"1";"2015-03-09 16:44:43.543";"2015-03-09 16:49:55.528";"1";"1";"0";"1";"1";"48";"47";"module.training_block1.exec-2048.GoNoGo1";"1252";"2015-03-09 16:47:58.783";"ST_failedStop";"31";"1";"FINISHED";"RIGHT";"failure";"256";"1";"2015-03-09 16:47:57.531";"3";;;;;;;;;;;;;;;;;;;;;;;;;;;;;;;;;
"highlighter";"1995";;"Windows 8";"Rachel's Experiment (SCIAT)";"1.0";"1";"1";"1";"1";"1";"1";"2015-03-09 16:44:43.543";"2015-03-09 16:49:55.528";"1";"1";"0";"1";"1";"49";"48";"module.training_block1.exec-2048.GoNoGo1";"1255";"2015-03-09 16:48:01.383";"ST_failedStop";"29";"1";"FINISHED";"RIGHT";"failure";"279";"1";"2015-03-09 16:48:00.127";"3";;;;;;;;;;;;;;;;;;;;;;;;;;;;;;;;;
"highlighter";"1995";;"Windows 8";"Rachel's Experiment (SCIAT)";"1.0";"1";"1";"1";"1";"1";"1";"2015-03-09 16:44:43.543";"2015-03-09 16:49:55.528";"1";"1";"0";"1";"1";"50";"49";"module.training_block1.exec-2048.GoNoGo1";"1250";"2015-03-09 16:48:03.971";"NST_correctLoc";"27";"1";"FINISHED";"RIGHT";"success";"274";"0";"2015-03-09 16:48:02.721";"3";;;;;;;;;;;;;;;;;;;;;;;;;;;;;;;;;
"highlighter";"1995";;"Windows 8";"Rachel's Experiment (SCIAT)";"1.0";"1";"1";"1";"1";"1";"1";"2015-03-09 16:44:43.543";"2015-03-09 16:49:55.528";"1";"1";"0";"1";"1";"51";"50";"module.training_block1.exec-2048.GoNoGo1";"1257";"2015-03-09 16:48:06.583";"NST_correctLoc";"19";"0";"FINISHED";"LEFT";"success";"282";"0";"2015-03-09 16:48:05.326";"3";;;;;;;;;;;;;;;;;;;;;;;;;;;;;;;;;
"highlighter";"1995";;"Windows 8";"Rachel's Experiment (SCIAT)";"1.0";"1";"1";"1";"1";"1";"1";"2015-03-09 16:44:43.543";"2015-03-09 16:49:55.528";"1";"1";"0";"1";"1";"52";"51";"module.training_block2.exec-5360.GoNoGo2";;;;;;;;;;;;;"1260";"2015-03-09 16:48:17.997";"NST_correctLoc";"13";"0";"FINISHED";"LEFT";"success";"414";"0";"2015-03-09 16:48:16.737";"2";;;;;;;;;;;;;;;;;;;;;
"highlighter";"1995";;"Windows 8";"Rachel's Experiment (SCIAT)";"1.0";"1";"1";"1";"1";"1";"1";"2015-03-09 16:44:43.543";"2015-03-09 16:49:55.528";"1";"1";"0";"1";"1";"53";"52";"module.training_block2.exec-5360.GoNoGo2";;;;;;;;;;;;;"1262";"2015-03-09 16:48:20.582";"NST_correctLoc";"27";"1";"FINISHED";"RIGHT";"success";"308";"0";"2015-03-09 16:48:19.319";"3";;;;;;;;;;;;;;;;;;;;;
"highlighter";"1995";;"Windows 8";"Rachel's Experiment (SCIAT)";"1.0";"1";"1";"1";"1";"1";"1";"2015-03-09 16:44:43.543";"2015-03-09 16:49:55.528";"1";"1";"0";"1";"1";"54";"53";"module.training_block2.exec-5360.GoNoGo2";;;;;;;;;;;;;"1260";"2015-03-09 16:48:23.181";"NST_correctLoc";"14";"1";"FINISHED";"RIGHT";"success";"277";"0";"2015-03-09 16:48:21.921";"2";;;;;;;;;;;;;;;;;;;;;
"highlighter";"1995";;"Windows 8";"Rachel's Experiment (SCIAT)";"1.0";"1";"1";"1";"1";"1";"1";"2015-03-09 16:44:43.543";"2015-03-09 16:49:55.528";"1";"1";"0";"1";"1";"55";"54";"module.training_block2.exec-5360.GoNoGo2";;;;;;;;;;;;;"1262";"2015-03-09 16:48:25.782";"ST_failedStop";"29";"0";"FINISHED";"LEFT";"failure";"312";"1";"2015-03-09 16:48:24.519";"3";;;;;;;;;;;;;;;;;;;;;
"highlighter";"1995";;"Windows 8";"Rachel's Experiment (SCIAT)";"1.0";"1";"1";"1";"1";"1";"1";"2015-03-09 16:44:43.543";"2015-03-09 16:49:55.528";"1";"1";"0";"1";"1";"56";"55";"module.training_block2.exec-5360.GoNoGo2";;;;;;;;;;;;;"1264";"2015-03-09 16:48:28.382";"NST_correctLoc";"11";"0";"FINISHED";"LEFT";"success";"312";"0";"2015-03-09 16:48:27.117";"2";;;;;;;;;;;;;;;;;;;;;
"highlighter";"1995";;"Windows 8";"Rachel's Experiment (SCIAT)";"1.0";"1";"1";"1";"1";"1";"1";"2015-03-09 16:44:43.543";"2015-03-09 16:49:55.528";"1";"1";"0";"1";"1";"57";"56";"module.training_block2.exec-5360.GoNoGo2";;;;;;;;;;;;;"1261";"2015-03-09 16:48:30.981";"NST_correctLoc";"35";"1";"FINISHED";"RIGHT";"success";"282";"0";"2015-03-09 16:48:29.719";"3";;;;;;;;;;;;;;;;;;;;;
"highlighter";"1995";;"Windows 8";"Rachel's Experiment (SCIAT)";"1.0";"1";"1";"1";"1";"1";"1";"2015-03-09 16:44:43.543";"2015-03-09 16:49:55.528";"1";"1";"0";"1";"1";"58";"57";"module.training_block2.exec-5360.GoNoGo2";;;;;;;;;;;;;"1257";"2015-03-09 16:48:33.582";"NST_correctLoc";"33";"0";"FINISHED";"LEFT";"success";"284";"0";"2015-03-09 16:48:32.324";"3";;;;;;;;;;;;;;;;;;;;;
"highlighter";"1995";;"Windows 8";"Rachel's Experiment (SCIAT)";"1.0";"1";"1";"1";"1";"1";"1";"2015-03-09 16:44:43.543";"2015-03-09 16:49:55.528";"1";"1";"0";"1";"1";"59";"58";"module.training_block2.exec-5360.GoNoGo2";;;;;;;;;;;;;"1250";"2015-03-09 16:48:36.179";"ST_failedStop";"22";"1";"FINISHED";"RIGHT";"failure";"279";"1";"2015-03-09 16:48:34.929";"3";;;;;;;;;;;;;;;;;;;;;
"highlighter";"1995";;"Windows 8";"Rachel's Experiment (SCIAT)";"1.0";"1";"1";"1";"1";"1";"1";"2015-03-09 16:44:43.543";"2015-03-09 16:49:55.528";"1";"1";"0";"1";"1";"60";"59";"module.training_block2.exec-5360.GoNoGo2";;;;;;;;;;;;;"1259";"2015-03-09 16:48:38.766";"NST_correctLoc";"15";"1";"FINISHED";"RIGHT";"success";"283";"0";"2015-03-09 16:48:37.507";"2";;;;;;;;;;;;;;;;;;;;;
"highlighter";"1995";;"Windows 8";"Rachel's Experiment (SCIAT)";"1.0";"1";"1";"1";"1";"1";"1";"2015-03-09 16:44:43.543";"2015-03-09 16:49:55.528";"1";"1";"0";"1";"1";"61";"60";"module.training_block2.exec-5360.GoNoGo2";;;;;;;;;;;;;"1264";"2015-03-09 16:48:41.381";"NST_correctLoc";"21";"0";"FINISHED";"LEFT";"success";"253";"0";"2015-03-09 16:48:40.116";"3";;;;;;;;;;;;;;;;;;;;;
"highlighter";"1995";;"Windows 8";"Rachel's Experiment (SCIAT)";"1.0";"1";"1";"1";"1";"1";"1";"2015-03-09 16:44:43.543";"2015-03-09 16:49:55.528";"1";"1";"0";"1";"1";"62";"61";"module.training_block2.exec-5360.GoNoGo2";;;;;;;;;;;;;"1262";"2015-03-09 16:48:43.982";"ST_failedStop";"6";"0";"FINISHED";"LEFT";"failure";"1205";"1";"2015-03-09 16:48:42.720";"1";;;;;;;;;;;;;;;;;;;;;
"highlighter";"1995";;"Windows 8";"Rachel's Experiment (SCIAT)";"1.0";"1";"1";"1";"1";"1";"1";"2015-03-09 16:44:43.543";"2015-03-09 16:49:55.528";"1";"1";"0";"1";"1";"63";"62";"module.training_block2.exec-5360.GoNoGo2";;;;;;;;;;;;;"1263";"2015-03-09 16:48:46.582";"ST_failedStop";"1";"0";"FINISHED";"LEFT";"failure";"330";"1";"2015-03-09 16:48:45.319";"1";;;;;;;;;;;;;;;;;;;;;
"highlighter";"1995";;"Windows 8";"Rachel's Experiment (SCIAT)";"1.0";"1";"1";"1";"1";"1";"1";"2015-03-09 16:44:43.543";"2015-03-09 16:49:55.528";"1";"1";"0";"1";"1";"64";"63";"module.training_block2.exec-5360.GoNoGo2";;;;;;;;;;;;;"1259";"2015-03-09 16:48:49.180";"NST_correctLoc";"17";"0";"FINISHED";"LEFT";"success";"307";"0";"2015-03-09 16:48:47.921";"2";;;;;;;;;;;;;;;;;;;;;
"highlighter";"1995";;"Windows 8";"Rachel's Experiment (SCIAT)";"1.0";"1";"1";"1";"1";"1";"1";"2015-03-09 16:44:43.543";"2015-03-09 16:49:55.528";"1";"1";"0";"1";"1";"65";"64";"module.training_block2.exec-5360.GoNoGo2";;;;;;;;;;;;;"1251";"2015-03-09 16:48:51.755";"ST_failedStop";"30";"0";"FINISHED";"LEFT";"failure";"322";"1";"2015-03-09 16:48:50.504";"3";;;;;;;;;;;;;;;;;;;;;
"highlighter";"1995";;"Windows 8";"Rachel's Experiment (SCIAT)";"1.0";"1";"1";"1";"1";"1";"1";"2015-03-09 16:44:43.543";"2015-03-09 16:49:55.528";"1";"1";"0";"1";"1";"66";"65";"module.training_block2.exec-5360.GoNoGo2";;;;;;;;;;;;;"1249";"2015-03-09 16:48:54.340";"NST_wrongLoc";"12";"0";"FINISHED";"RIGHT";"failure";"447";"0";"2015-03-09 16:48:53.090";"2";;;;;;;;;;;;;;;;;;;;;
"highlighter";"1995";;"Windows 8";"Rachel's Experiment (SCIAT)";"1.0";"1";"1";"1";"1";"1";"1";"2015-03-09 16:44:43.543";"2015-03-09 16:49:55.528";"1";"1";"0";"1";"1";"67";"66";"module.training_block2.exec-5360.GoNoGo2";;;;;;;;;;;;;"1246";"2015-03-09 16:48:56.932";"ST_failedStop";"3";"1";"FINISHED";"RIGHT";"failure";"878";"1";"2015-03-09 16:48:55.681";"1";;;;;;;;;;;;;;;;;;;;;
"highlighter";"1995";;"Windows 8";"Rachel's Experiment (SCIAT)";"1.0";"1";"1";"1";"1";"1";"1";"2015-03-09 16:44:43.543";"2015-03-09 16:49:55.528";"1";"1";"0";"1";"1";"68";"67";"module.training_block2.exec-5360.GoNoGo2";;;;;;;;;;;;;"1250";"2015-03-09 16:48:59.500";"NST_correctLoc";"34";"1";"FINISHED";"RIGHT";"success";"540";"0";"2015-03-09 16:48:58.249";"3";;;;;;;;;;;;;;;;;;;;;
"highlighter";"1995";;"Windows 8";"Rachel's Experiment (SCIAT)";"1.0";"1";"1";"1";"1";"1";"1";"2015-03-09 16:44:43.543";"2015-03-09 16:49:55.528";"1";"1";"0";"1";"1";"69";"68";"module.training_block2.exec-5360.GoNoGo2";;;;;;;;;;;;;"1256";"2015-03-09 16:49:02.096";"ST_failedStop";"4";"0";"FINISHED";"LEFT";"failure";"280";"1";"2015-03-09 16:49:00.839";"1";;;;;;;;;;;;;;;;;;;;;
"highlighter";"1995";;"Windows 8";"Rachel's Experiment (SCIAT)";"1.0";"1";"1";"1";"1";"1";"1";"2015-03-09 16:44:43.543";"2015-03-09 16:49:55.528";"1";"1";"0";"1";"1";"70";"69";"module.training_block2.exec-5360.GoNoGo2";;;;;;;;;;;;;"1261";"2015-03-09 16:49:04.679";"NST_correctLoc";"19";"1";"FINISHED";"RIGHT";"success";"351";"0";"2015-03-09 16:49:03.417";"3";;;;;;;;;;;;;;;;;;;;;
"highlighter";"1995";;"Windows 8";"Rachel's Experiment (SCIAT)";"1.0";"1";"1";"1";"1";"1";"1";"2015-03-09 16:44:43.543";"2015-03-09 16:49:55.528";"1";"1";"0";"1";"1";"71";"70";"module.training_block2.exec-5360.GoNoGo2";;;;;;;;;;;;;"1264";"2015-03-09 16:49:07.280";"ST_failedStop";"20";"0";"FINISHED";"LEFT";"failure";"306";"1";"2015-03-09 16:49:06.016";"3";;;;;;;;;;;;;;;;;;;;;
"highlighter";"1995";;"Windows 8";"Rachel's Experiment (SCIAT)";"1.0";"1";"1";"1";"1";"1";"1";"2015-03-09 16:44:43.543";"2015-03-09 16:49:55.528";"1";"1";"0";"1";"1";"72";"71";"module.training_block2.exec-5360.GoNoGo2";;;;;;;;;;;;;"1264";"2015-03-09 16:49:09.880";"NST_correctLoc";"31";"0";"FINISHED";"LEFT";"success";"363";"0";"2015-03-09 16:49:08.615";"3";;;;;;;;;;;;;;;;;;;;;
"highlighter";"1995";;"Windows 8";"Rachel's Experiment (SCIAT)";"1.0";"1";"1";"1";"1";"1";"1";"2015-03-09 16:44:43.543";"2015-03-09 16:49:55.528";"1";"1";"0";"1";"1";"73";"72";"module.training_block2.exec-5360.GoNoGo2";;;;;;;;;;;;;"1264";"2015-03-09 16:49:12.479";"NST_correctLoc";"16";"0";"FINISHED";"LEFT";"success";"328";"0";"2015-03-09 16:49:11.215";"2";;;;;;;;;;;;;;;;;;;;;
"highlighter";"1995";;"Windows 8";"Rachel's Experiment (SCIAT)";"1.0";"1";"1";"1";"1";"1";"1";"2015-03-09 16:44:43.543";"2015-03-09 16:49:55.528";"1";"1";"0";"1";"1";"74";"73";"module.training_block2.exec-5360.GoNoGo2";;;;;;;;;;;;;"1265";"2015-03-09 16:49:15.081";"ST_failedStop";"18";"1";"FINISHED";"RIGHT";"failure";"309";"1";"2015-03-09 16:49:13.815";"3";;;;;;;;;;;;;;;;;;;;;
"highlighter";"1995";;"Windows 8";"Rachel's Experiment (SCIAT)";"1.0";"1";"1";"1";"1";"1";"1";"2015-03-09 16:44:43.543";"2015-03-09 16:49:55.528";"1";"1";"0";"1";"1";"75";"74";"module.training_block2.exec-5360.GoNoGo2";;;;;;;;;;;;;"1262";"2015-03-09 16:49:17.665";"ST_failedStop";"24";"1";"FINISHED";"RIGHT";"failure";"285";"1";"2015-03-09 16:49:16.403";"3";;;;;;;;;;;;;;;;;;;;;
"highlighter";"1995";;"Windows 8";"Rachel's Experiment (SCIAT)";"1.0";"1";"1";"1";"1";"1";"1";"2015-03-09 16:44:43.543";"2015-03-09 16:49:55.528";"1";"1";"0";"1";"1";"76";"75";"module.training_block2.exec-5360.GoNoGo2";;;;;;;;;;;;;"1260";"2015-03-09 16:49:20.263";"NST_correctLoc";"25";"1";"FINISHED";"RIGHT";"success";"334";"0";"2015-03-09 16:49:19.003";"3";;;;;;;;;;;;;;;;;;;;;
"highlighter";"1995";;"Windows 8";"Rachel's Experiment (SCIAT)";"1.0";"1";"1";"1";"1";"1";"1";"2015-03-09 16:44:43.543";"2015-03-09 16:49:55.528";"1";"1";"0";"1";"1";"77";"76";"module.training_block2.exec-5360.GoNoGo2";;;;;;;;;;;;;"1246";"2015-03-09 16:49:22.848";"NST_correctLoc";"26";"1";"FINISHED";"RIGHT";"success";"290";"0";"2015-03-09 16:49:21.598";"3";;;;;;;;;;;;;;;;;;;;;
"highlighter";"1995";;"Windows 8";"Rachel's Experiment (SCIAT)";"1.0";"1";"1";"1";"1";"1";"1";"2015-03-09 16:44:43.543";"2015-03-09 16:49:55.528";"1";"1";"0";"1";"1";"78";"77";"module.training_block2.exec-5360.GoNoGo2";;;;;;;;;;;;;"1245";"2015-03-09 16:49:25.430";"NST_correctLoc";"10";"1";"FINISHED";"RIGHT";"success";"352";"0";"2015-03-09 16:49:24.179";"2";;;;;;;;;;;;;;;;;;;;;
"highlighter";"1995";;"Windows 8";"Rachel's Experiment (SCIAT)";"1.0";"1";"1";"1";"1";"1";"1";"2015-03-09 16:44:43.543";"2015-03-09 16:49:55.528";"1";"1";"0";"1";"1";"79";"78";"module.training_block2.exec-5360.GoNoGo2";;;;;;;;;;;;;"1262";"2015-03-09 16:49:28.012";"ST_failedStop";"32";"0";"FINISHED";"LEFT";"failure";"345";"1";"2015-03-09 16:49:26.749";"3";;;;;;;;;;;;;;;;;;;;;
"highlighter";"1995";;"Windows 8";"Rachel's Experiment (SCIAT)";"1.0";"1";"1";"1";"1";"1";"1";"2015-03-09 16:44:43.543";"2015-03-09 16:49:55.528";"1";"1";"0";"1";"1";"80";"79";"module.training_block2.exec-5360.GoNoGo2";;;;;;;;;;;;;"1260";"2015-03-09 16:49:30.595";"ST_failedStop";"5";"1";"FINISHED";"RIGHT";"failure";"337";"1";"2015-03-09 16:49:29.335";"1";;;;;;;;;;;;;;;;;;;;;
"highlighter";"1995";;"Windows 8";"Rachel's Experiment (SCIAT)";"1.0";"1";"1";"1";"1";"1";"1";"2015-03-09 16:44:43.543";"2015-03-09 16:49:55.528";"1";"1";"0";"1";"1";"81";"80";"module.training_block2.exec-5360.GoNoGo2";;;;;;;;;;;;;"1250";"2015-03-09 16:49:33.167";"ST_failedStop";"8";"0";"FINISHED";"LEFT";"failure";"383";"1";"2015-03-09 16:49:31.917";"1";;;;;;;;;;;;;;;;;;;;;
"highlighter";"1995";;"Windows 8";"Rachel's Experiment (SCIAT)";"1.0";"1";"1";"1";"1";"1";"1";"2015-03-09 16:44:43.543";"2015-03-09 16:49:55.528";"1";"1";"0";"1";"1";"82";"81";"module.training_block2.exec-5360.GoNoGo2";;;;;;;;;;;;;"1260";"2015-03-09 16:49:35.778";"ST_failedStop";"28";"0";"FINISHED";"LEFT";"failure";"332";"1";"2015-03-09 16:49:34.518";"3";;;;;;;;;;;;;;;;;;;;;
"highlighter";"1995";;"Windows 8";"Rachel's Experiment (SCIAT)";"1.0";"1";"1";"1";"1";"1";"1";"2015-03-09 16:44:43.543";"2015-03-09 16:49:55.528";"1";"1";"0";"1";"1";"83";"82";"module.training_block2.exec-5360.GoNoGo2";;;;;;;;;;;;;"1260";"2015-03-09 16:49:38.394";"ST_failedStop";"2";"1";"FINISHED";"RIGHT";"failure";"343";"1";"2015-03-09 16:49:37.134";"1";;;;;;;;;;;;;;;;;;;;;
"highlighter";"1995";;"Windows 8";"Rachel's Experiment (SCIAT)";"1.0";"1";"1";"1";"1";"1";"1";"2015-03-09 16:44:43.543";"2015-03-09 16:49:55.528";"1";"1";"0";"1";"1";"84";"83";"module.training_block2.exec-5360.GoNoGo2";;;;;;;;;;;;;"1261";"2015-03-09 16:49:40.978";"ST_failedStop";"7";"1";"FINISHED";"RIGHT";"failure";"381";"1";"2015-03-09 16:49:39.717";"1";;;;;;;;;;;;;;;;;;;;;
"highlighter";"1995";;"Windows 8";"Rachel's Experiment (SCIAT)";"1.0";"1";"1";"1";"1";"1";"1";"2015-03-09 16:44:43.543";"2015-03-09 16:49:55.528";"1";"1";"0";"1";"1";"85";"84";"module.training_block2.exec-5360.GoNoGo2";;;;;;;;;;;;;"1250";"2015-03-09 16:49:43.565";"ST_failedStop";"23";"0";"FINISHED";"LEFT";"failure";"328";"1";"2015-03-09 16:49:42.314";"3";;;;;;;;;;;;;;;;;;;;;
"highlighter";"1995";;"Windows 8";"Rachel's Experiment (SCIAT)";"1.0";"1";"1";"1";"1";"1";"1";"2015-03-09 16:44:43.543";"2015-03-09 16:49:55.528";"1";"1";"0";"1";"1";"86";"85";"module.training_block2.exec-5360.GoNoGo2";;;;;;;;;;;;;"1249";"2015-03-09 16:49:46.162";"NST_correctLoc";"9";"1";"FINISHED";"RIGHT";"success";"366";"0";"2015-03-09 16:49:44.912";"2";;;;;;;;;;;;;;;;;;;;;
"highlighter";"1995";;"Windows 8";"Rachel's Experiment (SCIAT)";"1.0";"1";"1";"1";"1";"1";"1";"2015-03-09 16:44:43.543";"2015-03-09 16:49:55.528";"1";"1";"0";"1";"1";"87";"86";"module.training_block2.exec-5360.GoNoGo2";;;;;;;;;;;;;"1248";"2015-03-09 16:49:48.746";"ST_failedStop";"0";"1";"FINISHED";"RIGHT";"failure";"341";"1";"2015-03-09 16:49:47.494";"1";;;;;;;;;;;;;;;;;;;;;
