"user.name";"user.yearOfBirth";"user.sex";"user.osName";"module.name";"module.version";"module.online.subject.code";"module.online.study.id";"module.online.module.nr";"module.online.group.nr";"session.id";"session.index";"session.startTime";"session.endTime";"session.completed";"session.node-2964.blockOrder";"session.node-2964.IATorder";"session.node-2964.keyOrder";"session.node-4522.conditionType";"trial.id";"trial.index";"trial.name";"trial.GoNoGo1.durationTime";"trial.GoNoGo1.endTime";"trial.GoNoGo1.Error Type";"trial.GoNoGo1.icon";"trial.GoNoGo1.location";"trial.GoNoGo1.outcome";"trial.GoNoGo1.response";"trial.GoNoGo1.result";"trial.GoNoGo1.RT";"trial.GoNoGo1.signal";"trial.GoNoGo1.startTime";"trial.GoNoGo1.stimulus type";"trial.GoNoGo2.durationTime";"trial.GoNoGo2.endTime";"trial.GoNoGo2.Error Type";"trial.GoNoGo2.icon";"trial.GoNoGo2.location";"trial.GoNoGo2.outcome";"trial.GoNoGo2.response";"trial.GoNoGo2.result";"trial.GoNoGo2.RT";"trial.GoNoGo2.signal";"trial.GoNoGo2.startTime";"trial.GoNoGo2.stimulus type";"trial.GoNoGo3.durationTime";"trial.GoNoGo3.endTime";"trial.GoNoGo3.Error Type";"trial.GoNoGo3.icon";"trial.GoNoGo3.location";"trial.GoNoGo3.outcome";"trial.GoNoGo3.response";"trial.GoNoGo3.result";"trial.GoNoGo3.RT";"trial.GoNoGo3.signal";"trial.GoNoGo3.startTime";"trial.GoNoGo3.stimulus type";"trial.GoNoGo4.durationTime";"trial.GoNoGo4.endTime";"trial.GoNoGo4.Error Type";"trial.GoNoGo4.icon";"trial.GoNoGo4.location";"trial.GoNoGo4.outcome";"trial.GoNoGo4.response";"trial.GoNoGo4.result";"trial.GoNoGo4.RT";"trial.GoNoGo4.signal";"trial.GoNoGo4.startTime";"trial.GoNoGo4.stimulus type";"trial.GoNoGo_Practice.durationTime";"trial.GoNoGo_Practice.endTime";"trial.GoNoGo_Practice.icon";"trial.GoNoGo_Practice.location";"trial.GoNoGo_Practice.outcome";"trial.GoNoGo_Practice.response";"trial.GoNoGo_Practice.result";"trial.GoNoGo_Practice.RT";"trial.GoNoGo_Practice.signal";"trial.GoNoGo_Practice.startTime";"trial.GoNoGo_Practice.stimulus type";"trial.GoNoGo_Tutorial.durationTime";"trial.GoNoGo_Tutorial.endTime";"trial.GoNoGo_Tutorial.icon";"trial.GoNoGo_Tutorial.location";"trial.GoNoGo_Tutorial.outcome";"trial.GoNoGo_Tutorial.response";"trial.GoNoGo_Tutorial.result";"trial.GoNoGo_Tutorial.RT";"trial.GoNoGo_Tutorial.signal";"trial.GoNoGo_Tutorial.startTime";"trial.IAT_block1.durationTime";"trial.IAT_block1.endTime";"trial.IAT_block1.outcome";"trial.IAT_block1.response";"trial.IAT_block1.result";"trial.IAT_block1.RT";"trial.IAT_block1.startTime";"trial.IAT_block1.Stimfile";"trial.IAT_block1.stimType";"trial.IAT_block1.word";"trial.IAT_Practice1.durationTime";"trial.IAT_Practice1.endTime";"trial.IAT_Practice1.outcome";"trial.IAT_Practice1.response";"trial.IAT_Practice1.result";"trial.IAT_Practice1.RT";"trial.IAT_Practice1.startTime";"trial.IAT_Practice1.Stimfile";"trial.IAT_Practice1.stimType";"trial.IAT_Practice1.word"
"2013_022";"1995";;"Windows 7";"Rachel's Experiment (SCIAT)";"1.0";"1";"1";"1";"1";"1";"1";"2015-03-09 13:46:41.157";"2015-03-09 13:58:10.881";"1";"0";"0";"1";"0";"1";"0";"module.GoNoGotutorial.exec-9021.GoNoGo_Tutorial";;;;;;;;;;;;;;;;;;;;;;;;;;;;;;;;;;;;;;;;;;;;;;;;;;;;;;;;;;;;"3998";"2015-03-09 13:47:11.281";"leftResponse";"0";"FINISHED";"LEFT";"success";"1920";"0";"2015-03-09 13:47:07.272";;;;;;;;;;;;;;;;;;;;
"2013_022";"1995";;"Windows 7";"Rachel's Experiment (SCIAT)";"1.0";"1";"1";"1";"1";"1";"1";"2015-03-09 13:46:41.157";"2015-03-09 13:58:10.881";"1";"0";"0";"1";"0";"2";"1";"module.GoNoGotutorial.exec-9021.GoNoGo_Tutorial";;;;;;;;;;;;;;;;;;;;;;;;;;;;;;;;;;;;;;;;;;;;;;;;;;;;;;;;;;;;"4002";"2015-03-09 13:47:16.585";"rightResponse";"1";"FINISHED";"NONE";"failure";"0";"0";"2015-03-09 13:47:12.576";;;;;;;;;;;;;;;;;;;;
"2013_022";"1995";;"Windows 7";"Rachel's Experiment (SCIAT)";"1.0";"1";"1";"1";"1";"1";"1";"2015-03-09 13:46:41.157";"2015-03-09 13:58:10.881";"1";"0";"0";"1";"0";"3";"2";"module.GoNoGotutorial.exec-9021.GoNoGo_Tutorial";;;;;;;;;;;;;;;;;;;;;;;;;;;;;;;;;;;;;;;;;;;;;;;;;;;;;;;;;;;;"4003";"2015-03-09 13:47:21.889";"quickResponse";"0";"FINISHED";"LEFT";"success";"1862";"0";"2015-03-09 13:47:17.880";;;;;;;;;;;;;;;;;;;;
"2013_022";"1995";;"Windows 7";"Rachel's Experiment (SCIAT)";"1.0";"1";"1";"1";"1";"1";"1";"2015-03-09 13:46:41.157";"2015-03-09 13:58:10.881";"1";"0";"0";"1";"0";"4";"3";"module.GoNoGopractice.exec-2792.GoNoGo_Practice";;;;;;;;;;;;;;;;;;;;;;;;;;;;;;;;;;;;;;;;;;;;;;;;;"1959";"2015-03-09 13:47:30.204";"18";"0";"FINISHED";"LEFT";"success";"438";"0";"2015-03-09 13:47:28.238";"3";;;;;;;;;;;;;;;;;;;;;;;;;;;;;;
"2013_022";"1995";;"Windows 7";"Rachel's Experiment (SCIAT)";"1.0";"1";"1";"1";"1";"1";"1";"2015-03-09 13:46:41.157";"2015-03-09 13:58:10.881";"1";"0";"0";"1";"0";"5";"4";"module.GoNoGopractice.exec-2792.GoNoGo_Practice";;;;;;;;;;;;;;;;;;;;;;;;;;;;;;;;;;;;;;;;;;;;;;;;;"1959";"2015-03-09 13:47:33.464";"21";"1";"FINISHED";"RIGHT";"success";"763";"0";"2015-03-09 13:47:31.499";"3";;;;;;;;;;;;;;;;;;;;;;;;;;;;;;
"2013_022";"1995";;"Windows 7";"Rachel's Experiment (SCIAT)";"1.0";"1";"1";"1";"1";"1";"1";"2015-03-09 13:46:41.157";"2015-03-09 13:58:10.881";"1";"0";"0";"1";"0";"6";"5";"module.GoNoGopractice.exec-2792.GoNoGo_Practice";;;;;;;;;;;;;;;;;;;;;;;;;;;;;;;;;;;;;;;;;;;;;;;;;"1959";"2015-03-09 13:47:36.725";"14";"1";"FINISHED";"RIGHT";"success";"470";"0";"2015-03-09 13:47:34.759";"2";;;;;;;;;;;;;;;;;;;;;;;;;;;;;;
"2013_022";"1995";;"Windows 7";"Rachel's Experiment (SCIAT)";"1.0";"1";"1";"1";"1";"1";"1";"2015-03-09 13:46:41.157";"2015-03-09 13:58:10.881";"1";"0";"0";"1";"0";"7";"6";"module.GoNoGopractice.exec-2792.GoNoGo_Practice";;;;;;;;;;;;;;;;;;;;;;;;;;;;;;;;;;;;;;;;;;;;;;;;;"1952";"2015-03-09 13:47:40.079";"26";"0";"FINISHED";"LEFT";"success";"437";"0";"2015-03-09 13:47:38.113";"3";;;;;;;;;;;;;;;;;;;;;;;;;;;;;;
"2013_022";"1995";;"Windows 7";"Rachel's Experiment (SCIAT)";"1.0";"1";"1";"1";"1";"1";"1";"2015-03-09 13:46:41.157";"2015-03-09 13:58:10.881";"1";"0";"0";"1";"0";"8";"7";"module.GoNoGopractice.exec-2792.GoNoGo_Practice";;;;;;;;;;;;;;;;;;;;;;;;;;;;;;;;;;;;;;;;;;;;;;;;;"1959";"2015-03-09 13:47:43.323";"2";"0";"FINISHED";"LEFT";"success";"424";"0";"2015-03-09 13:47:41.358";"1";;;;;;;;;;;;;;;;;;;;;;;;;;;;;;
"2013_022";"1995";;"Windows 7";"Rachel's Experiment (SCIAT)";"1.0";"1";"1";"1";"1";"1";"1";"2015-03-09 13:46:41.157";"2015-03-09 13:58:10.881";"1";"0";"0";"1";"0";"9";"8";"module.GoNoGopractice.exec-2792.GoNoGo_Practice";;;;;;;;;;;;;;;;;;;;;;;;;;;;;;;;;;;;;;;;;;;;;;;;;"1959";"2015-03-09 13:47:46.568";"30";"0";"FINISHED";"LEFT";"success";"394";"0";"2015-03-09 13:47:44.603";"3";;;;;;;;;;;;;;;;;;;;;;;;;;;;;;
"2013_022";"1995";;"Windows 7";"Rachel's Experiment (SCIAT)";"1.0";"1";"1";"1";"1";"1";"1";"2015-03-09 13:46:41.157";"2015-03-09 13:58:10.881";"1";"0";"0";"1";"0";"10";"9";"module.GoNoGopractice.exec-2792.GoNoGo_Practice";;;;;;;;;;;;;;;;;;;;;;;;;;;;;;;;;;;;;;;;;;;;;;;;;"1959";"2015-03-09 13:47:49.813";"6";"1";"FINISHED";"RIGHT";"success";"334";"0";"2015-03-09 13:47:47.847";"1";;;;;;;;;;;;;;;;;;;;;;;;;;;;;;
"2013_022";"1995";;"Windows 7";"Rachel's Experiment (SCIAT)";"1.0";"1";"1";"1";"1";"1";"1";"2015-03-09 13:46:41.157";"2015-03-09 13:58:10.881";"1";"0";"0";"1";"0";"11";"10";"module.GoNoGopractice.exec-2792.GoNoGo_Practice";;;;;;;;;;;;;;;;;;;;;;;;;;;;;;;;;;;;;;;;;;;;;;;;;"1960";"2015-03-09 13:47:53.058";"34";"0";"FINISHED";"LEFT";"success";"402";"0";"2015-03-09 13:47:51.092";"3";;;;;;;;;;;;;;;;;;;;;;;;;;;;;;
"2013_022";"1995";;"Windows 7";"Rachel's Experiment (SCIAT)";"1.0";"1";"1";"1";"1";"1";"1";"2015-03-09 13:46:41.157";"2015-03-09 13:58:10.881";"1";"0";"0";"1";"0";"12";"11";"module.GoNoGopractice.exec-2792.GoNoGo_Practice";;;;;;;;;;;;;;;;;;;;;;;;;;;;;;;;;;;;;;;;;;;;;;;;;"1959";"2015-03-09 13:47:56.303";"23";"1";"FINISHED";"RIGHT";"success";"852";"0";"2015-03-09 13:47:54.337";"3";;;;;;;;;;;;;;;;;;;;;;;;;;;;;;
"2013_022";"1995";;"Windows 7";"Rachel's Experiment (SCIAT)";"1.0";"1";"1";"1";"1";"1";"1";"2015-03-09 13:46:41.157";"2015-03-09 13:58:10.881";"1";"0";"0";"1";"0";"13";"12";"module.GoNoGopractice.exec-2792.GoNoGo_Practice";;;;;;;;;;;;;;;;;;;;;;;;;;;;;;;;;;;;;;;;;;;;;;;;;"1959";"2015-03-09 13:47:59.547";"13";"0";"FINISHED";"LEFT";"success";"367";"0";"2015-03-09 13:47:57.582";"2";;;;;;;;;;;;;;;;;;;;;;;;;;;;;;
"2013_022";"1995";;"Windows 7";"Rachel's Experiment (SCIAT)";"1.0";"1";"1";"1";"1";"1";"1";"2015-03-09 13:46:41.157";"2015-03-09 13:58:10.881";"1";"0";"0";"1";"0";"14";"13";"module.GoNoGopractice.exec-2792.GoNoGo_Practice";;;;;;;;;;;;;;;;;;;;;;;;;;;;;;;;;;;;;;;;;;;;;;;;;"1960";"2015-03-09 13:48:02.792";"3";"1";"FINISHED";"RIGHT";"success";"516";"0";"2015-03-09 13:48:00.827";"1";;;;;;;;;;;;;;;;;;;;;;;;;;;;;;
"2013_022";"1995";;"Windows 7";"Rachel's Experiment (SCIAT)";"1.0";"1";"1";"1";"1";"1";"1";"2015-03-09 13:46:41.157";"2015-03-09 13:58:10.881";"1";"0";"0";"1";"0";"15";"14";"module.GoNoGopractice.exec-2792.GoNoGo_Practice";;;;;;;;;;;;;;;;;;;;;;;;;;;;;;;;;;;;;;;;;;;;;;;;;"1959";"2015-03-09 13:48:06.037";"27";"1";"FINISHED";"RIGHT";"success";"590";"0";"2015-03-09 13:48:04.071";"3";;;;;;;;;;;;;;;;;;;;;;;;;;;;;;
"2013_022";"1995";;"Windows 7";"Rachel's Experiment (SCIAT)";"1.0";"1";"1";"1";"1";"1";"1";"2015-03-09 13:46:41.157";"2015-03-09 13:58:10.881";"1";"0";"0";"1";"0";"16";"15";"module.training_block1.exec-6047.GoNoGo1";"1256";"2015-03-09 13:48:14.742";"NST_correctLoc";"10";"0";"FINISHED";"LEFT";"success";"501";"0";"2015-03-09 13:48:13.478";"2";;;;;;;;;;;;;;;;;;;;;;;;;;;;;;;;;;;;;;;;;;;;;;;;;;;;;;;;;;;;;;;;;;;;;;;;;;;;;
"2013_022";"1995";;"Windows 7";"Rachel's Experiment (SCIAT)";"1.0";"1";"1";"1";"1";"1";"1";"2015-03-09 13:46:41.157";"2015-03-09 13:58:10.881";"1";"0";"0";"1";"0";"17";"16";"module.training_block1.exec-6047.GoNoGo1";"1257";"2015-03-09 13:48:17.285";"NST_correctLoc";"0";"1";"FINISHED";"RIGHT";"success";"431";"0";"2015-03-09 13:48:16.021";"1";;;;;;;;;;;;;;;;;;;;;;;;;;;;;;;;;;;;;;;;;;;;;;;;;;;;;;;;;;;;;;;;;;;;;;;;;;;;;
"2013_022";"1995";;"Windows 7";"Rachel's Experiment (SCIAT)";"1.0";"1";"1";"1";"1";"1";"1";"2015-03-09 13:46:41.157";"2015-03-09 13:58:10.881";"1";"0";"0";"1";"0";"18";"17";"module.training_block1.exec-6047.GoNoGo1";"1257";"2015-03-09 13:48:19.827";"NST_correctLoc";"19";"0";"FINISHED";"LEFT";"success";"538";"0";"2015-03-09 13:48:18.564";"3";;;;;;;;;;;;;;;;;;;;;;;;;;;;;;;;;;;;;;;;;;;;;;;;;;;;;;;;;;;;;;;;;;;;;;;;;;;;;
"2013_022";"1995";;"Windows 7";"Rachel's Experiment (SCIAT)";"1.0";"1";"1";"1";"1";"1";"1";"2015-03-09 13:46:41.157";"2015-03-09 13:58:10.881";"1";"0";"0";"1";"0";"19";"18";"module.training_block1.exec-6047.GoNoGo1";"1258";"2015-03-09 13:48:22.370";"NST_correctLoc";"12";"0";"FINISHED";"LEFT";"success";"411";"0";"2015-03-09 13:48:21.107";"2";;;;;;;;;;;;;;;;;;;;;;;;;;;;;;;;;;;;;;;;;;;;;;;;;;;;;;;;;;;;;;;;;;;;;;;;;;;;;
"2013_022";"1995";;"Windows 7";"Rachel's Experiment (SCIAT)";"1.0";"1";"1";"1";"1";"1";"1";"2015-03-09 13:46:41.157";"2015-03-09 13:58:10.881";"1";"0";"0";"1";"0";"20";"19";"module.training_block1.exec-6047.GoNoGo1";"1257";"2015-03-09 13:48:24.913";"NST_correctLoc";"29";"1";"FINISHED";"RIGHT";"success";"412";"0";"2015-03-09 13:48:23.649";"3";;;;;;;;;;;;;;;;;;;;;;;;;;;;;;;;;;;;;;;;;;;;;;;;;;;;;;;;;;;;;;;;;;;;;;;;;;;;;
"2013_022";"1995";;"Windows 7";"Rachel's Experiment (SCIAT)";"1.0";"1";"1";"1";"1";"1";"1";"2015-03-09 13:46:41.157";"2015-03-09 13:58:10.881";"1";"0";"0";"1";"0";"21";"20";"module.training_block1.exec-6047.GoNoGo1";"1261";"2015-03-09 13:48:27.456";"NST_correctLoc";"13";"0";"FINISHED";"LEFT";"success";"449";"0";"2015-03-09 13:48:26.192";"2";;;;;;;;;;;;;;;;;;;;;;;;;;;;;;;;;;;;;;;;;;;;;;;;;;;;;;;;;;;;;;;;;;;;;;;;;;;;;
"2013_022";"1995";;"Windows 7";"Rachel's Experiment (SCIAT)";"1.0";"1";"1";"1";"1";"1";"1";"2015-03-09 13:46:41.157";"2015-03-09 13:58:10.881";"1";"0";"0";"1";"0";"22";"21";"module.training_block1.exec-6047.GoNoGo1";"1257";"2015-03-09 13:48:29.999";"NST_correctLoc";"15";"0";"FINISHED";"LEFT";"success";"413";"0";"2015-03-09 13:48:28.735";"2";;;;;;;;;;;;;;;;;;;;;;;;;;;;;;;;;;;;;;;;;;;;;;;;;;;;;;;;;;;;;;;;;;;;;;;;;;;;;
"2013_022";"1995";;"Windows 7";"Rachel's Experiment (SCIAT)";"1.0";"1";"1";"1";"1";"1";"1";"2015-03-09 13:46:41.157";"2015-03-09 13:58:10.881";"1";"0";"0";"1";"0";"23";"22";"module.training_block1.exec-6047.GoNoGo1";"1252";"2015-03-09 13:48:32.542";"NST_correctLoc";"16";"0";"FINISHED";"LEFT";"success";"442";"0";"2015-03-09 13:48:31.278";"2";;;;;;;;;;;;;;;;;;;;;;;;;;;;;;;;;;;;;;;;;;;;;;;;;;;;;;;;;;;;;;;;;;;;;;;;;;;;;
"2013_022";"1995";;"Windows 7";"Rachel's Experiment (SCIAT)";"1.0";"1";"1";"1";"1";"1";"1";"2015-03-09 13:46:41.157";"2015-03-09 13:58:10.881";"1";"0";"0";"1";"0";"24";"23";"module.training_block1.exec-6047.GoNoGo1";"1257";"2015-03-09 13:48:35.084";"NST_correctLoc";"4";"0";"FINISHED";"LEFT";"success";"392";"0";"2015-03-09 13:48:33.821";"1";;;;;;;;;;;;;;;;;;;;;;;;;;;;;;;;;;;;;;;;;;;;;;;;;;;;;;;;;;;;;;;;;;;;;;;;;;;;;
"2013_022";"1995";;"Windows 7";"Rachel's Experiment (SCIAT)";"1.0";"1";"1";"1";"1";"1";"1";"2015-03-09 13:46:41.157";"2015-03-09 13:58:10.881";"1";"0";"0";"1";"0";"25";"24";"module.training_block1.exec-6047.GoNoGo1";"1258";"2015-03-09 13:48:37.627";"NST_correctLoc";"33";"0";"FINISHED";"LEFT";"success";"338";"0";"2015-03-09 13:48:36.364";"3";;;;;;;;;;;;;;;;;;;;;;;;;;;;;;;;;;;;;;;;;;;;;;;;;;;;;;;;;;;;;;;;;;;;;;;;;;;;;
"2013_022";"1995";;"Windows 7";"Rachel's Experiment (SCIAT)";"1.0";"1";"1";"1";"1";"1";"1";"2015-03-09 13:46:41.157";"2015-03-09 13:58:10.881";"1";"0";"0";"1";"0";"26";"25";"module.training_block1.exec-6047.GoNoGo1";"1257";"2015-03-09 13:48:40.170";"NST_correctLoc";"21";"0";"FINISHED";"LEFT";"success";"346";"0";"2015-03-09 13:48:38.906";"3";;;;;;;;;;;;;;;;;;;;;;;;;;;;;;;;;;;;;;;;;;;;;;;;;;;;;;;;;;;;;;;;;;;;;;;;;;;;;
"2013_022";"1995";;"Windows 7";"Rachel's Experiment (SCIAT)";"1.0";"1";"1";"1";"1";"1";"1";"2015-03-09 13:46:41.157";"2015-03-09 13:58:10.881";"1";"0";"0";"1";"0";"27";"26";"module.training_block1.exec-6047.GoNoGo1";"1257";"2015-03-09 13:48:42.713";"NST_correctLoc";"14";"0";"FINISHED";"LEFT";"success";"308";"0";"2015-03-09 13:48:41.449";"2";;;;;;;;;;;;;;;;;;;;;;;;;;;;;;;;;;;;;;;;;;;;;;;;;;;;;;;;;;;;;;;;;;;;;;;;;;;;;
"2013_022";"1995";;"Windows 7";"Rachel's Experiment (SCIAT)";"1.0";"1";"1";"1";"1";"1";"1";"2015-03-09 13:46:41.157";"2015-03-09 13:58:10.881";"1";"0";"0";"1";"0";"28";"27";"module.training_block1.exec-6047.GoNoGo1";"1257";"2015-03-09 13:48:45.256";"NST_correctLoc";"9";"1";"FINISHED";"RIGHT";"success";"309";"0";"2015-03-09 13:48:43.992";"2";;;;;;;;;;;;;;;;;;;;;;;;;;;;;;;;;;;;;;;;;;;;;;;;;;;;;;;;;;;;;;;;;;;;;;;;;;;;;
"2013_022";"1995";;"Windows 7";"Rachel's Experiment (SCIAT)";"1.0";"1";"1";"1";"1";"1";"1";"2015-03-09 13:46:41.157";"2015-03-09 13:58:10.881";"1";"0";"0";"1";"0";"29";"28";"module.training_block1.exec-6047.GoNoGo1";"1261";"2015-03-09 13:48:47.798";"NST_correctLoc";"23";"0";"FINISHED";"LEFT";"success";"322";"0";"2015-03-09 13:48:46.535";"3";;;;;;;;;;;;;;;;;;;;;;;;;;;;;;;;;;;;;;;;;;;;;;;;;;;;;;;;;;;;;;;;;;;;;;;;;;;;;
"2013_022";"1995";;"Windows 7";"Rachel's Experiment (SCIAT)";"1.0";"1";"1";"1";"1";"1";"1";"2015-03-09 13:46:41.157";"2015-03-09 13:58:10.881";"1";"0";"0";"1";"0";"30";"29";"module.training_block1.exec-6047.GoNoGo1";"1256";"2015-03-09 13:48:50.341";"NST_correctLoc";"20";"1";"FINISHED";"RIGHT";"success";"327";"0";"2015-03-09 13:48:49.078";"3";;;;;;;;;;;;;;;;;;;;;;;;;;;;;;;;;;;;;;;;;;;;;;;;;;;;;;;;;;;;;;;;;;;;;;;;;;;;;
"2013_022";"1995";;"Windows 7";"Rachel's Experiment (SCIAT)";"1.0";"1";"1";"1";"1";"1";"1";"2015-03-09 13:46:41.157";"2015-03-09 13:58:10.881";"1";"0";"0";"1";"0";"31";"30";"module.training_block1.exec-6047.GoNoGo1";"1257";"2015-03-09 13:48:52.884";"NST_correctLoc";"24";"0";"FINISHED";"LEFT";"success";"377";"0";"2015-03-09 13:48:51.620";"3";;;;;;;;;;;;;;;;;;;;;;;;;;;;;;;;;;;;;;;;;;;;;;;;;;;;;;;;;;;;;;;;;;;;;;;;;;;;;
"2013_022";"1995";;"Windows 7";"Rachel's Experiment (SCIAT)";"1.0";"1";"1";"1";"1";"1";"1";"2015-03-09 13:46:41.157";"2015-03-09 13:58:10.881";"1";"0";"0";"1";"0";"32";"31";"module.training_block1.exec-6047.GoNoGo1";"1258";"2015-03-09 13:48:55.427";"NST_correctLoc";"1";"0";"FINISHED";"LEFT";"success";"346";"0";"2015-03-09 13:48:54.163";"1";;;;;;;;;;;;;;;;;;;;;;;;;;;;;;;;;;;;;;;;;;;;;;;;;;;;;;;;;;;;;;;;;;;;;;;;;;;;;
"2013_022";"1995";;"Windows 7";"Rachel's Experiment (SCIAT)";"1.0";"1";"1";"1";"1";"1";"1";"2015-03-09 13:46:41.157";"2015-03-09 13:58:10.881";"1";"0";"0";"1";"0";"33";"32";"module.training_block1.exec-6047.GoNoGo1";"1261";"2015-03-09 13:48:57.970";"NST_correctLoc";"2";"1";"FINISHED";"RIGHT";"success";"439";"0";"2015-03-09 13:48:56.706";"1";;;;;;;;;;;;;;;;;;;;;;;;;;;;;;;;;;;;;;;;;;;;;;;;;;;;;;;;;;;;;;;;;;;;;;;;;;;;;
"2013_022";"1995";;"Windows 7";"Rachel's Experiment (SCIAT)";"1.0";"1";"1";"1";"1";"1";"1";"2015-03-09 13:46:41.157";"2015-03-09 13:58:10.881";"1";"0";"0";"1";"0";"34";"33";"module.training_block1.exec-6047.GoNoGo1";"1257";"2015-03-09 13:49:00.512";"NST_correctLoc";"18";"1";"FINISHED";"RIGHT";"success";"436";"0";"2015-03-09 13:48:59.249";"3";;;;;;;;;;;;;;;;;;;;;;;;;;;;;;;;;;;;;;;;;;;;;;;;;;;;;;;;;;;;;;;;;;;;;;;;;;;;;
"2013_022";"1995";;"Windows 7";"Rachel's Experiment (SCIAT)";"1.0";"1";"1";"1";"1";"1";"1";"2015-03-09 13:46:41.157";"2015-03-09 13:58:10.881";"1";"0";"0";"1";"0";"35";"34";"module.training_block1.exec-6047.GoNoGo1";"1261";"2015-03-09 13:49:03.055";"NST_correctLoc";"27";"0";"FINISHED";"LEFT";"success";"873";"0";"2015-03-09 13:49:01.792";"3";;;;;;;;;;;;;;;;;;;;;;;;;;;;;;;;;;;;;;;;;;;;;;;;;;;;;;;;;;;;;;;;;;;;;;;;;;;;;
"2013_022";"1995";;"Windows 7";"Rachel's Experiment (SCIAT)";"1.0";"1";"1";"1";"1";"1";"1";"2015-03-09 13:46:41.157";"2015-03-09 13:58:10.881";"1";"0";"0";"1";"0";"36";"35";"module.training_block1.exec-6047.GoNoGo1";"1261";"2015-03-09 13:49:05.598";"NST_correctLoc";"34";"1";"FINISHED";"RIGHT";"success";"475";"0";"2015-03-09 13:49:04.334";"3";;;;;;;;;;;;;;;;;;;;;;;;;;;;;;;;;;;;;;;;;;;;;;;;;;;;;;;;;;;;;;;;;;;;;;;;;;;;;
"2013_022";"1995";;"Windows 7";"Rachel's Experiment (SCIAT)";"1.0";"1";"1";"1";"1";"1";"1";"2015-03-09 13:46:41.157";"2015-03-09 13:58:10.881";"1";"0";"0";"1";"0";"37";"36";"module.training_block1.exec-6047.GoNoGo1";"1257";"2015-03-09 13:49:08.141";"NST_correctLoc";"17";"1";"FINISHED";"RIGHT";"success";"319";"0";"2015-03-09 13:49:06.877";"2";;;;;;;;;;;;;;;;;;;;;;;;;;;;;;;;;;;;;;;;;;;;;;;;;;;;;;;;;;;;;;;;;;;;;;;;;;;;;
"2013_022";"1995";;"Windows 7";"Rachel's Experiment (SCIAT)";"1.0";"1";"1";"1";"1";"1";"1";"2015-03-09 13:46:41.157";"2015-03-09 13:58:10.881";"1";"0";"0";"1";"0";"38";"37";"module.training_block1.exec-6047.GoNoGo1";"1257";"2015-03-09 13:49:10.684";"NST_correctLoc";"28";"0";"FINISHED";"LEFT";"success";"329";"0";"2015-03-09 13:49:09.420";"3";;;;;;;;;;;;;;;;;;;;;;;;;;;;;;;;;;;;;;;;;;;;;;;;;;;;;;;;;;;;;;;;;;;;;;;;;;;;;
"2013_022";"1995";;"Windows 7";"Rachel's Experiment (SCIAT)";"1.0";"1";"1";"1";"1";"1";"1";"2015-03-09 13:46:41.157";"2015-03-09 13:58:10.881";"1";"0";"0";"1";"0";"39";"38";"module.training_block1.exec-6047.GoNoGo1";"1258";"2015-03-09 13:49:13.226";"NST_correctLoc";"35";"1";"FINISHED";"RIGHT";"success";"347";"0";"2015-03-09 13:49:11.963";"3";;;;;;;;;;;;;;;;;;;;;;;;;;;;;;;;;;;;;;;;;;;;;;;;;;;;;;;;;;;;;;;;;;;;;;;;;;;;;
"2013_022";"1995";;"Windows 7";"Rachel's Experiment (SCIAT)";"1.0";"1";"1";"1";"1";"1";"1";"2015-03-09 13:46:41.157";"2015-03-09 13:58:10.881";"1";"0";"0";"1";"0";"40";"39";"module.training_block1.exec-6047.GoNoGo1";"1261";"2015-03-09 13:49:15.769";"NST_correctLoc";"30";"1";"FINISHED";"RIGHT";"success";"767";"0";"2015-03-09 13:49:14.506";"3";;;;;;;;;;;;;;;;;;;;;;;;;;;;;;;;;;;;;;;;;;;;;;;;;;;;;;;;;;;;;;;;;;;;;;;;;;;;;
"2013_022";"1995";;"Windows 7";"Rachel's Experiment (SCIAT)";"1.0";"1";"1";"1";"1";"1";"1";"2015-03-09 13:46:41.157";"2015-03-09 13:58:10.881";"1";"0";"0";"1";"0";"41";"40";"module.training_block1.exec-6047.GoNoGo1";"1261";"2015-03-09 13:49:18.312";"NST_correctLoc";"6";"1";"FINISHED";"RIGHT";"success";"448";"0";"2015-03-09 13:49:17.048";"1";;;;;;;;;;;;;;;;;;;;;;;;;;;;;;;;;;;;;;;;;;;;;;;;;;;;;;;;;;;;;;;;;;;;;;;;;;;;;
"2013_022";"1995";;"Windows 7";"Rachel's Experiment (SCIAT)";"1.0";"1";"1";"1";"1";"1";"1";"2015-03-09 13:46:41.157";"2015-03-09 13:58:10.881";"1";"0";"0";"1";"0";"42";"41";"module.training_block1.exec-6047.GoNoGo1";"1256";"2015-03-09 13:49:20.855";"NST_correctLoc";"8";"1";"FINISHED";"RIGHT";"success";"436";"0";"2015-03-09 13:49:19.591";"1";;;;;;;;;;;;;;;;;;;;;;;;;;;;;;;;;;;;;;;;;;;;;;;;;;;;;;;;;;;;;;;;;;;;;;;;;;;;;
"2013_022";"1995";;"Windows 7";"Rachel's Experiment (SCIAT)";"1.0";"1";"1";"1";"1";"1";"1";"2015-03-09 13:46:41.157";"2015-03-09 13:58:10.881";"1";"0";"0";"1";"0";"43";"42";"module.training_block1.exec-6047.GoNoGo1";"1257";"2015-03-09 13:49:23.398";"NST_correctLoc";"7";"1";"FINISHED";"RIGHT";"success";"415";"0";"2015-03-09 13:49:22.134";"1";;;;;;;;;;;;;;;;;;;;;;;;;;;;;;;;;;;;;;;;;;;;;;;;;;;;;;;;;;;;;;;;;;;;;;;;;;;;;
"2013_022";"1995";;"Windows 7";"Rachel's Experiment (SCIAT)";"1.0";"1";"1";"1";"1";"1";"1";"2015-03-09 13:46:41.157";"2015-03-09 13:58:10.881";"1";"0";"0";"1";"0";"44";"43";"module.training_block1.exec-6047.GoNoGo1";"1257";"2015-03-09 13:49:25.940";"NST_correctLoc";"31";"1";"FINISHED";"RIGHT";"success";"440";"0";"2015-03-09 13:49:24.677";"3";;;;;;;;;;;;;;;;;;;;;;;;;;;;;;;;;;;;;;;;;;;;;;;;;;;;;;;;;;;;;;;;;;;;;;;;;;;;;
"2013_022";"1995";;"Windows 7";"Rachel's Experiment (SCIAT)";"1.0";"1";"1";"1";"1";"1";"1";"2015-03-09 13:46:41.157";"2015-03-09 13:58:10.881";"1";"0";"0";"1";"0";"45";"44";"module.training_block1.exec-6047.GoNoGo1";"1257";"2015-03-09 13:49:28.483";"NST_correctLoc";"22";"0";"FINISHED";"LEFT";"success";"465";"0";"2015-03-09 13:49:27.220";"3";;;;;;;;;;;;;;;;;;;;;;;;;;;;;;;;;;;;;;;;;;;;;;;;;;;;;;;;;;;;;;;;;;;;;;;;;;;;;
"2013_022";"1995";;"Windows 7";"Rachel's Experiment (SCIAT)";"1.0";"1";"1";"1";"1";"1";"1";"2015-03-09 13:46:41.157";"2015-03-09 13:58:10.881";"1";"0";"0";"1";"0";"46";"45";"module.training_block1.exec-6047.GoNoGo1";"1257";"2015-03-09 13:49:31.026";"NST_correctLoc";"32";"0";"FINISHED";"LEFT";"success";"474";"0";"2015-03-09 13:49:29.762";"3";;;;;;;;;;;;;;;;;;;;;;;;;;;;;;;;;;;;;;;;;;;;;;;;;;;;;;;;;;;;;;;;;;;;;;;;;;;;;
"2013_022";"1995";;"Windows 7";"Rachel's Experiment (SCIAT)";"1.0";"1";"1";"1";"1";"1";"1";"2015-03-09 13:46:41.157";"2015-03-09 13:58:10.881";"1";"0";"0";"1";"0";"47";"46";"module.training_block1.exec-6047.GoNoGo1";"1258";"2015-03-09 13:49:33.569";"NST_correctLoc";"5";"1";"FINISHED";"RIGHT";"success";"452";"0";"2015-03-09 13:49:32.305";"1";;;;;;;;;;;;;;;;;;;;;;;;;;;;;;;;;;;;;;;;;;;;;;;;;;;;;;;;;;;;;;;;;;;;;;;;;;;;;
"2013_022";"1995";;"Windows 7";"Rachel's Experiment (SCIAT)";"1.0";"1";"1";"1";"1";"1";"1";"2015-03-09 13:46:41.157";"2015-03-09 13:58:10.881";"1";"0";"0";"1";"0";"48";"47";"module.training_block1.exec-6047.GoNoGo1";"1257";"2015-03-09 13:49:36.112";"NST_correctLoc";"11";"1";"FINISHED";"RIGHT";"success";"533";"0";"2015-03-09 13:49:34.848";"2";;;;;;;;;;;;;;;;;;;;;;;;;;;;;;;;;;;;;;;;;;;;;;;;;;;;;;;;;;;;;;;;;;;;;;;;;;;;;
"2013_022";"1995";;"Windows 7";"Rachel's Experiment (SCIAT)";"1.0";"1";"1";"1";"1";"1";"1";"2015-03-09 13:46:41.157";"2015-03-09 13:58:10.881";"1";"0";"0";"1";"0";"49";"48";"module.training_block1.exec-6047.GoNoGo1";"1257";"2015-03-09 13:49:38.654";"NST_correctLoc";"25";"0";"FINISHED";"LEFT";"success";"310";"0";"2015-03-09 13:49:37.391";"3";;;;;;;;;;;;;;;;;;;;;;;;;;;;;;;;;;;;;;;;;;;;;;;;;;;;;;;;;;;;;;;;;;;;;;;;;;;;;
"2013_022";"1995";;"Windows 7";"Rachel's Experiment (SCIAT)";"1.0";"1";"1";"1";"1";"1";"1";"2015-03-09 13:46:41.157";"2015-03-09 13:58:10.881";"1";"0";"0";"1";"0";"50";"49";"module.training_block1.exec-6047.GoNoGo1";"1261";"2015-03-09 13:49:41.197";"NST_correctLoc";"26";"1";"FINISHED";"RIGHT";"success";"339";"0";"2015-03-09 13:49:39.934";"3";;;;;;;;;;;;;;;;;;;;;;;;;;;;;;;;;;;;;;;;;;;;;;;;;;;;;;;;;;;;;;;;;;;;;;;;;;;;;
"2013_022";"1995";;"Windows 7";"Rachel's Experiment (SCIAT)";"1.0";"1";"1";"1";"1";"1";"1";"2015-03-09 13:46:41.157";"2015-03-09 13:58:10.881";"1";"0";"0";"1";"0";"51";"50";"module.training_block1.exec-6047.GoNoGo1";"1261";"2015-03-09 13:49:43.740";"NST_correctLoc";"3";"1";"FINISHED";"RIGHT";"success";"340";"0";"2015-03-09 13:49:42.476";"1";;;;;;;;;;;;;;;;;;;;;;;;;;;;;;;;;;;;;;;;;;;;;;;;;;;;;;;;;;;;;;;;;;;;;;;;;;;;;
"2013_022";"1995";;"Windows 7";"Rachel's Experiment (SCIAT)";"1.0";"1";"1";"1";"1";"1";"1";"2015-03-09 13:46:41.157";"2015-03-09 13:58:10.881";"1";"0";"0";"1";"0";"52";"51";"module.training_block2.exec-5067.GoNoGo2";;;;;;;;;;;;;"1261";"2015-03-09 13:49:54.894";"NST_correctLoc";"7";"0";"FINISHED";"LEFT";"success";"322";"0";"2015-03-09 13:49:53.630";"1";;;;;;;;;;;;;;;;;;;;;;;;;;;;;;;;;;;;;;;;;;;;;;;;;;;;;;;;;;;;;;;;;
"2013_022";"1995";;"Windows 7";"Rachel's Experiment (SCIAT)";"1.0";"1";"1";"1";"1";"1";"1";"2015-03-09 13:46:41.157";"2015-03-09 13:58:10.881";"1";"0";"0";"1";"0";"53";"52";"module.training_block2.exec-5067.GoNoGo2";;;;;;;;;;;;;"1261";"2015-03-09 13:49:57.437";"NST_correctLoc";"22";"0";"FINISHED";"LEFT";"success";"331";"0";"2015-03-09 13:49:56.173";"3";;;;;;;;;;;;;;;;;;;;;;;;;;;;;;;;;;;;;;;;;;;;;;;;;;;;;;;;;;;;;;;;;
"2013_022";"1995";;"Windows 7";"Rachel's Experiment (SCIAT)";"1.0";"1";"1";"1";"1";"1";"1";"2015-03-09 13:46:41.157";"2015-03-09 13:58:10.881";"1";"0";"0";"1";"0";"54";"53";"module.training_block2.exec-5067.GoNoGo2";;;;;;;;;;;;;"1261";"2015-03-09 13:49:59.980";"NST_correctLoc";"15";"0";"FINISHED";"LEFT";"success";"349";"0";"2015-03-09 13:49:58.716";"2";;;;;;;;;;;;;;;;;;;;;;;;;;;;;;;;;;;;;;;;;;;;;;;;;;;;;;;;;;;;;;;;;
"2013_022";"1995";;"Windows 7";"Rachel's Experiment (SCIAT)";"1.0";"1";"1";"1";"1";"1";"1";"2015-03-09 13:46:41.157";"2015-03-09 13:58:10.881";"1";"0";"0";"1";"0";"55";"54";"module.training_block2.exec-5067.GoNoGo2";;;;;;;;;;;;;"1261";"2015-03-09 13:50:02.522";"NST_correctLoc";"30";"0";"FINISHED";"LEFT";"success";"374";"0";"2015-03-09 13:50:01.259";"3";;;;;;;;;;;;;;;;;;;;;;;;;;;;;;;;;;;;;;;;;;;;;;;;;;;;;;;;;;;;;;;;;
"2013_022";"1995";;"Windows 7";"Rachel's Experiment (SCIAT)";"1.0";"1";"1";"1";"1";"1";"1";"2015-03-09 13:46:41.157";"2015-03-09 13:58:10.881";"1";"0";"0";"1";"0";"56";"55";"module.training_block2.exec-5067.GoNoGo2";;;;;;;;;;;;;"1261";"2015-03-09 13:50:05.065";"NST_correctLoc";"6";"0";"FINISHED";"LEFT";"success";"359";"0";"2015-03-09 13:50:03.802";"1";;;;;;;;;;;;;;;;;;;;;;;;;;;;;;;;;;;;;;;;;;;;;;;;;;;;;;;;;;;;;;;;;
"2013_022";"1995";;"Windows 7";"Rachel's Experiment (SCIAT)";"1.0";"1";"1";"1";"1";"1";"1";"2015-03-09 13:46:41.157";"2015-03-09 13:58:10.881";"1";"0";"0";"1";"0";"57";"56";"module.training_block2.exec-5067.GoNoGo2";;;;;;;;;;;;;"1261";"2015-03-09 13:50:07.608";"NST_correctLoc";"13";"1";"FINISHED";"RIGHT";"success";"360";"0";"2015-03-09 13:50:06.344";"2";;;;;;;;;;;;;;;;;;;;;;;;;;;;;;;;;;;;;;;;;;;;;;;;;;;;;;;;;;;;;;;;;
"2013_022";"1995";;"Windows 7";"Rachel's Experiment (SCIAT)";"1.0";"1";"1";"1";"1";"1";"1";"2015-03-09 13:46:41.157";"2015-03-09 13:58:10.881";"1";"0";"0";"1";"0";"58";"57";"module.training_block2.exec-5067.GoNoGo2";;;;;;;;;;;;;"1261";"2015-03-09 13:50:10.151";"NST_correctLoc";"16";"0";"FINISHED";"LEFT";"success";"337";"0";"2015-03-09 13:50:08.887";"2";;;;;;;;;;;;;;;;;;;;;;;;;;;;;;;;;;;;;;;;;;;;;;;;;;;;;;;;;;;;;;;;;
"2013_022";"1995";;"Windows 7";"Rachel's Experiment (SCIAT)";"1.0";"1";"1";"1";"1";"1";"1";"2015-03-09 13:46:41.157";"2015-03-09 13:58:10.881";"1";"0";"0";"1";"0";"59";"58";"module.training_block2.exec-5067.GoNoGo2";;;;;;;;;;;;;"1261";"2015-03-09 13:50:12.694";"NST_correctLoc";"21";"1";"FINISHED";"RIGHT";"success";"530";"0";"2015-03-09 13:50:11.430";"3";;;;;;;;;;;;;;;;;;;;;;;;;;;;;;;;;;;;;;;;;;;;;;;;;;;;;;;;;;;;;;;;;
"2013_022";"1995";;"Windows 7";"Rachel's Experiment (SCIAT)";"1.0";"1";"1";"1";"1";"1";"1";"2015-03-09 13:46:41.157";"2015-03-09 13:58:10.881";"1";"0";"0";"1";"0";"60";"59";"module.training_block2.exec-5067.GoNoGo2";;;;;;;;;;;;;"1261";"2015-03-09 13:50:15.236";"NST_correctLoc";"9";"0";"FINISHED";"LEFT";"success";"332";"0";"2015-03-09 13:50:13.973";"2";;;;;;;;;;;;;;;;;;;;;;;;;;;;;;;;;;;;;;;;;;;;;;;;;;;;;;;;;;;;;;;;;
"2013_022";"1995";;"Windows 7";"Rachel's Experiment (SCIAT)";"1.0";"1";"1";"1";"1";"1";"1";"2015-03-09 13:46:41.157";"2015-03-09 13:58:10.881";"1";"0";"0";"1";"0";"61";"60";"module.training_block2.exec-5067.GoNoGo2";;;;;;;;;;;;;"1261";"2015-03-09 13:50:17.779";"NST_correctLoc";"32";"1";"FINISHED";"RIGHT";"success";"317";"0";"2015-03-09 13:50:16.516";"3";;;;;;;;;;;;;;;;;;;;;;;;;;;;;;;;;;;;;;;;;;;;;;;;;;;;;;;;;;;;;;;;;
"2013_022";"1995";;"Windows 7";"Rachel's Experiment (SCIAT)";"1.0";"1";"1";"1";"1";"1";"1";"2015-03-09 13:46:41.157";"2015-03-09 13:58:10.881";"1";"0";"0";"1";"0";"62";"61";"module.training_block2.exec-5067.GoNoGo2";;;;;;;;;;;;;"1261";"2015-03-09 13:50:20.322";"NST_correctLoc";"35";"0";"FINISHED";"LEFT";"success";"390";"0";"2015-03-09 13:50:19.059";"3";;;;;;;;;;;;;;;;;;;;;;;;;;;;;;;;;;;;;;;;;;;;;;;;;;;;;;;;;;;;;;;;;
"2013_022";"1995";;"Windows 7";"Rachel's Experiment (SCIAT)";"1.0";"1";"1";"1";"1";"1";"1";"2015-03-09 13:46:41.157";"2015-03-09 13:58:10.881";"1";"0";"0";"1";"0";"63";"62";"module.training_block2.exec-5067.GoNoGo2";;;;;;;;;;;;;"1261";"2015-03-09 13:50:22.865";"NST_correctLoc";"5";"0";"FINISHED";"LEFT";"success";"471";"0";"2015-03-09 13:50:21.601";"1";;;;;;;;;;;;;;;;;;;;;;;;;;;;;;;;;;;;;;;;;;;;;;;;;;;;;;;;;;;;;;;;;
"2013_022";"1995";;"Windows 7";"Rachel's Experiment (SCIAT)";"1.0";"1";"1";"1";"1";"1";"1";"2015-03-09 13:46:41.157";"2015-03-09 13:58:10.881";"1";"0";"0";"1";"0";"64";"63";"module.training_block2.exec-5067.GoNoGo2";;;;;;;;;;;;;"1261";"2015-03-09 13:50:25.408";"NST_correctLoc";"12";"1";"FINISHED";"RIGHT";"success";"512";"0";"2015-03-09 13:50:24.144";"2";;;;;;;;;;;;;;;;;;;;;;;;;;;;;;;;;;;;;;;;;;;;;;;;;;;;;;;;;;;;;;;;;
"2013_022";"1995";;"Windows 7";"Rachel's Experiment (SCIAT)";"1.0";"1";"1";"1";"1";"1";"1";"2015-03-09 13:46:41.157";"2015-03-09 13:58:10.881";"1";"0";"0";"1";"0";"65";"64";"module.training_block2.exec-5067.GoNoGo2";;;;;;;;;;;;;"1261";"2015-03-09 13:50:27.951";"NST_correctLoc";"29";"0";"FINISHED";"LEFT";"success";"353";"0";"2015-03-09 13:50:26.687";"3";;;;;;;;;;;;;;;;;;;;;;;;;;;;;;;;;;;;;;;;;;;;;;;;;;;;;;;;;;;;;;;;;
"2013_022";"1995";;"Windows 7";"Rachel's Experiment (SCIAT)";"1.0";"1";"1";"1";"1";"1";"1";"2015-03-09 13:46:41.157";"2015-03-09 13:58:10.881";"1";"0";"0";"1";"0";"66";"65";"module.training_block2.exec-5067.GoNoGo2";;;;;;;;;;;;;"1261";"2015-03-09 13:50:30.493";"NST_correctLoc";"0";"0";"FINISHED";"LEFT";"success";"347";"0";"2015-03-09 13:50:29.230";"1";;;;;;;;;;;;;;;;;;;;;;;;;;;;;;;;;;;;;;;;;;;;;;;;;;;;;;;;;;;;;;;;;
"2013_022";"1995";;"Windows 7";"Rachel's Experiment (SCIAT)";"1.0";"1";"1";"1";"1";"1";"1";"2015-03-09 13:46:41.157";"2015-03-09 13:58:10.881";"1";"0";"0";"1";"0";"67";"66";"module.training_block2.exec-5067.GoNoGo2";;;;;;;;;;;;;"1261";"2015-03-09 13:50:33.036";"NST_correctLoc";"31";"0";"FINISHED";"LEFT";"success";"492";"0";"2015-03-09 13:50:31.773";"3";;;;;;;;;;;;;;;;;;;;;;;;;;;;;;;;;;;;;;;;;;;;;;;;;;;;;;;;;;;;;;;;;
"2013_022";"1995";;"Windows 7";"Rachel's Experiment (SCIAT)";"1.0";"1";"1";"1";"1";"1";"1";"2015-03-09 13:46:41.157";"2015-03-09 13:58:10.881";"1";"0";"0";"1";"0";"68";"67";"module.training_block2.exec-5067.GoNoGo2";;;;;;;;;;;;;"1261";"2015-03-09 13:50:35.579";"NST_correctLoc";"19";"1";"FINISHED";"RIGHT";"success";"477";"0";"2015-03-09 13:50:34.315";"3";;;;;;;;;;;;;;;;;;;;;;;;;;;;;;;;;;;;;;;;;;;;;;;;;;;;;;;;;;;;;;;;;
"2013_022";"1995";;"Windows 7";"Rachel's Experiment (SCIAT)";"1.0";"1";"1";"1";"1";"1";"1";"2015-03-09 13:46:41.157";"2015-03-09 13:58:10.881";"1";"0";"0";"1";"0";"69";"68";"module.training_block2.exec-5067.GoNoGo2";;;;;;;;;;;;;"1261";"2015-03-09 13:50:38.122";"NST_correctLoc";"25";"1";"FINISHED";"RIGHT";"success";"470";"0";"2015-03-09 13:50:36.858";"3";;;;;;;;;;;;;;;;;;;;;;;;;;;;;;;;;;;;;;;;;;;;;;;;;;;;;;;;;;;;;;;;;
"2013_022";"1995";;"Windows 7";"Rachel's Experiment (SCIAT)";"1.0";"1";"1";"1";"1";"1";"1";"2015-03-09 13:46:41.157";"2015-03-09 13:58:10.881";"1";"0";"0";"1";"0";"70";"69";"module.training_block2.exec-5067.GoNoGo2";;;;;;;;;;;;;"1261";"2015-03-09 13:50:40.665";"NST_correctLoc";"34";"1";"FINISHED";"RIGHT";"success";"399";"0";"2015-03-09 13:50:39.401";"3";;;;;;;;;;;;;;;;;;;;;;;;;;;;;;;;;;;;;;;;;;;;;;;;;;;;;;;;;;;;;;;;;
"2013_022";"1995";;"Windows 7";"Rachel's Experiment (SCIAT)";"1.0";"1";"1";"1";"1";"1";"1";"2015-03-09 13:46:41.157";"2015-03-09 13:58:10.881";"1";"0";"0";"1";"0";"71";"70";"module.training_block2.exec-5067.GoNoGo2";;;;;;;;;;;;;"1261";"2015-03-09 13:50:43.207";"NST_correctLoc";"14";"0";"FINISHED";"LEFT";"success";"329";"0";"2015-03-09 13:50:41.944";"2";;;;;;;;;;;;;;;;;;;;;;;;;;;;;;;;;;;;;;;;;;;;;;;;;;;;;;;;;;;;;;;;;
"2013_022";"1995";;"Windows 7";"Rachel's Experiment (SCIAT)";"1.0";"1";"1";"1";"1";"1";"1";"2015-03-09 13:46:41.157";"2015-03-09 13:58:10.881";"1";"0";"0";"1";"0";"72";"71";"module.training_block2.exec-5067.GoNoGo2";;;;;;;;;;;;;"1261";"2015-03-09 13:50:45.750";"NST_correctLoc";"24";"1";"FINISHED";"RIGHT";"success";"322";"0";"2015-03-09 13:50:44.487";"3";;;;;;;;;;;;;;;;;;;;;;;;;;;;;;;;;;;;;;;;;;;;;;;;;;;;;;;;;;;;;;;;;
"2013_022";"1995";;"Windows 7";"Rachel's Experiment (SCIAT)";"1.0";"1";"1";"1";"1";"1";"1";"2015-03-09 13:46:41.157";"2015-03-09 13:58:10.881";"1";"0";"0";"1";"0";"73";"72";"module.training_block2.exec-5067.GoNoGo2";;;;;;;;;;;;;"1261";"2015-03-09 13:50:48.293";"NST_correctLoc";"10";"1";"FINISHED";"RIGHT";"success";"291";"0";"2015-03-09 13:50:47.029";"2";;;;;;;;;;;;;;;;;;;;;;;;;;;;;;;;;;;;;;;;;;;;;;;;;;;;;;;;;;;;;;;;;
"2013_022";"1995";;"Windows 7";"Rachel's Experiment (SCIAT)";"1.0";"1";"1";"1";"1";"1";"1";"2015-03-09 13:46:41.157";"2015-03-09 13:58:10.881";"1";"0";"0";"1";"0";"74";"73";"module.training_block2.exec-5067.GoNoGo2";;;;;;;;;;;;;"1261";"2015-03-09 13:50:50.836";"NST_correctLoc";"1";"0";"FINISHED";"LEFT";"success";"324";"0";"2015-03-09 13:50:49.572";"1";;;;;;;;;;;;;;;;;;;;;;;;;;;;;;;;;;;;;;;;;;;;;;;;;;;;;;;;;;;;;;;;;
"2013_022";"1995";;"Windows 7";"Rachel's Experiment (SCIAT)";"1.0";"1";"1";"1";"1";"1";"1";"2015-03-09 13:46:41.157";"2015-03-09 13:58:10.881";"1";"0";"0";"1";"0";"75";"74";"module.training_block2.exec-5067.GoNoGo2";;;;;;;;;;;;;"1261";"2015-03-09 13:50:53.379";"NST_correctLoc";"23";"0";"FINISHED";"LEFT";"success";"309";"0";"2015-03-09 13:50:52.115";"3";;;;;;;;;;;;;;;;;;;;;;;;;;;;;;;;;;;;;;;;;;;;;;;;;;;;;;;;;;;;;;;;;
"2013_022";"1995";;"Windows 7";"Rachel's Experiment (SCIAT)";"1.0";"1";"1";"1";"1";"1";"1";"2015-03-09 13:46:41.157";"2015-03-09 13:58:10.881";"1";"0";"0";"1";"0";"76";"75";"module.training_block2.exec-5067.GoNoGo2";;;;;;;;;;;;;"1261";"2015-03-09 13:50:55.921";"NST_correctLoc";"33";"0";"FINISHED";"LEFT";"success";"511";"0";"2015-03-09 13:50:54.658";"3";;;;;;;;;;;;;;;;;;;;;;;;;;;;;;;;;;;;;;;;;;;;;;;;;;;;;;;;;;;;;;;;;
"2013_022";"1995";;"Windows 7";"Rachel's Experiment (SCIAT)";"1.0";"1";"1";"1";"1";"1";"1";"2015-03-09 13:46:41.157";"2015-03-09 13:58:10.881";"1";"0";"0";"1";"0";"77";"76";"module.training_block2.exec-5067.GoNoGo2";;;;;;;;;;;;;"1261";"2015-03-09 13:50:58.464";"NST_correctLoc";"2";"1";"FINISHED";"RIGHT";"success";"312";"0";"2015-03-09 13:50:57.201";"1";;;;;;;;;;;;;;;;;;;;;;;;;;;;;;;;;;;;;;;;;;;;;;;;;;;;;;;;;;;;;;;;;
"2013_022";"1995";;"Windows 7";"Rachel's Experiment (SCIAT)";"1.0";"1";"1";"1";"1";"1";"1";"2015-03-09 13:46:41.157";"2015-03-09 13:58:10.881";"1";"0";"0";"1";"0";"78";"77";"module.training_block2.exec-5067.GoNoGo2";;;;;;;;;;;;;"1261";"2015-03-09 13:51:01.007";"NST_correctLoc";"4";"1";"FINISHED";"RIGHT";"success";"449";"0";"2015-03-09 13:50:59.743";"1";;;;;;;;;;;;;;;;;;;;;;;;;;;;;;;;;;;;;;;;;;;;;;;;;;;;;;;;;;;;;;;;;
"2013_022";"1995";;"Windows 7";"Rachel's Experiment (SCIAT)";"1.0";"1";"1";"1";"1";"1";"1";"2015-03-09 13:46:41.157";"2015-03-09 13:58:10.881";"1";"0";"0";"1";"0";"79";"78";"module.training_block2.exec-5067.GoNoGo2";;;;;;;;;;;;;"1261";"2015-03-09 13:51:03.550";"NST_correctLoc";"17";"1";"FINISHED";"RIGHT";"success";"338";"0";"2015-03-09 13:51:02.286";"2";;;;;;;;;;;;;;;;;;;;;;;;;;;;;;;;;;;;;;;;;;;;;;;;;;;;;;;;;;;;;;;;;
"2013_022";"1995";;"Windows 7";"Rachel's Experiment (SCIAT)";"1.0";"1";"1";"1";"1";"1";"1";"2015-03-09 13:46:41.157";"2015-03-09 13:58:10.881";"1";"0";"0";"1";"0";"80";"79";"module.training_block2.exec-5067.GoNoGo2";;;;;;;;;;;;;"1261";"2015-03-09 13:51:06.093";"NST_correctLoc";"18";"1";"FINISHED";"RIGHT";"success";"315";"0";"2015-03-09 13:51:04.829";"3";;;;;;;;;;;;;;;;;;;;;;;;;;;;;;;;;;;;;;;;;;;;;;;;;;;;;;;;;;;;;;;;;
"2013_022";"1995";;"Windows 7";"Rachel's Experiment (SCIAT)";"1.0";"1";"1";"1";"1";"1";"1";"2015-03-09 13:46:41.157";"2015-03-09 13:58:10.881";"1";"0";"0";"1";"0";"81";"80";"module.training_block2.exec-5067.GoNoGo2";;;;;;;;;;;;;"1261";"2015-03-09 13:51:08.635";"NST_correctLoc";"11";"1";"FINISHED";"RIGHT";"success";"309";"0";"2015-03-09 13:51:07.372";"2";;;;;;;;;;;;;;;;;;;;;;;;;;;;;;;;;;;;;;;;;;;;;;;;;;;;;;;;;;;;;;;;;
"2013_022";"1995";;"Windows 7";"Rachel's Experiment (SCIAT)";"1.0";"1";"1";"1";"1";"1";"1";"2015-03-09 13:46:41.157";"2015-03-09 13:58:10.881";"1";"0";"0";"1";"0";"82";"81";"module.training_block2.exec-5067.GoNoGo2";;;;;;;;;;;;;"1261";"2015-03-09 13:51:11.178";"NST_correctLoc";"28";"0";"FINISHED";"LEFT";"success";"350";"0";"2015-03-09 13:51:09.915";"3";;;;;;;;;;;;;;;;;;;;;;;;;;;;;;;;;;;;;;;;;;;;;;;;;;;;;;;;;;;;;;;;;
"2013_022";"1995";;"Windows 7";"Rachel's Experiment (SCIAT)";"1.0";"1";"1";"1";"1";"1";"1";"2015-03-09 13:46:41.157";"2015-03-09 13:58:10.881";"1";"0";"0";"1";"0";"83";"82";"module.training_block2.exec-5067.GoNoGo2";;;;;;;;;;;;;"1261";"2015-03-09 13:51:13.721";"NST_correctLoc";"8";"1";"FINISHED";"RIGHT";"success";"327";"0";"2015-03-09 13:51:12.457";"1";;;;;;;;;;;;;;;;;;;;;;;;;;;;;;;;;;;;;;;;;;;;;;;;;;;;;;;;;;;;;;;;;
"2013_022";"1995";;"Windows 7";"Rachel's Experiment (SCIAT)";"1.0";"1";"1";"1";"1";"1";"1";"2015-03-09 13:46:41.157";"2015-03-09 13:58:10.881";"1";"0";"0";"1";"0";"84";"83";"module.training_block2.exec-5067.GoNoGo2";;;;;;;;;;;;;"1261";"2015-03-09 13:51:16.264";"NST_correctLoc";"26";"0";"FINISHED";"LEFT";"success";"328";"0";"2015-03-09 13:51:15.000";"3";;;;;;;;;;;;;;;;;;;;;;;;;;;;;;;;;;;;;;;;;;;;;;;;;;;;;;;;;;;;;;;;;
"2013_022";"1995";;"Windows 7";"Rachel's Experiment (SCIAT)";"1.0";"1";"1";"1";"1";"1";"1";"2015-03-09 13:46:41.157";"2015-03-09 13:58:10.881";"1";"0";"0";"1";"0";"85";"84";"module.training_block2.exec-5067.GoNoGo2";;;;;;;;;;;;;"1261";"2015-03-09 13:51:18.807";"NST_correctLoc";"27";"0";"FINISHED";"LEFT";"success";"521";"0";"2015-03-09 13:51:17.543";"3";;;;;;;;;;;;;;;;;;;;;;;;;;;;;;;;;;;;;;;;;;;;;;;;;;;;;;;;;;;;;;;;;
"2013_022";"1995";;"Windows 7";"Rachel's Experiment (SCIAT)";"1.0";"1";"1";"1";"1";"1";"1";"2015-03-09 13:46:41.157";"2015-03-09 13:58:10.881";"1";"0";"0";"1";"0";"86";"85";"module.training_block2.exec-5067.GoNoGo2";;;;;;;;;;;;;"1262";"2015-03-09 13:51:21.349";"NST_correctLoc";"20";"0";"FINISHED";"LEFT";"success";"474";"0";"2015-03-09 13:51:20.086";"3";;;;;;;;;;;;;;;;;;;;;;;;;;;;;;;;;;;;;;;;;;;;;;;;;;;;;;;;;;;;;;;;;
"2013_022";"1995";;"Windows 7";"Rachel's Experiment (SCIAT)";"1.0";"1";"1";"1";"1";"1";"1";"2015-03-09 13:46:41.157";"2015-03-09 13:58:10.881";"1";"0";"0";"1";"0";"87";"86";"module.training_block2.exec-5067.GoNoGo2";;;;;;;;;;;;;"1261";"2015-03-09 13:51:23.892";"NST_correctLoc";"3";"1";"FINISHED";"RIGHT";"success";"436";"0";"2015-03-09 13:51:22.629";"1";;;;;;;;;;;;;;;;;;;;;;;;;;;;;;;;;;;;;;;;;;;;;;;;;;;;;;;;;;;;;;;;;
"2013_022";"1995";;"Windows 7";"Rachel's Experiment (SCIAT)";"1.0";"1";"1";"1";"1";"1";"1";"2015-03-09 13:46:41.157";"2015-03-09 13:58:10.881";"1";"0";"0";"1";"0";"88";"87";"module.training_block3.exec-9343.GoNoGo3";;;;;;;;;;;;;;;;;;;;;;;;;"1261";"2015-03-09 13:51:34.828";"NST_correctLoc";"27";"0";"FINISHED";"LEFT";"success";"308";"0";"2015-03-09 13:51:33.564";"3";;;;;;;;;;;;;;;;;;;;;;;;;;;;;;;;;;;;;;;;;;;;;;;;;;;;;
"2013_022";"1995";;"Windows 7";"Rachel's Experiment (SCIAT)";"1.0";"1";"1";"1";"1";"1";"1";"2015-03-09 13:46:41.157";"2015-03-09 13:58:10.881";"1";"0";"0";"1";"0";"89";"88";"module.training_block3.exec-9343.GoNoGo3";;;;;;;;;;;;;;;;;;;;;;;;;"1261";"2015-03-09 13:51:37.371";"NST_correctLoc";"18";"1";"FINISHED";"RIGHT";"success";"413";"0";"2015-03-09 13:51:36.107";"3";;;;;;;;;;;;;;;;;;;;;;;;;;;;;;;;;;;;;;;;;;;;;;;;;;;;;
"2013_022";"1995";;"Windows 7";"Rachel's Experiment (SCIAT)";"1.0";"1";"1";"1";"1";"1";"1";"2015-03-09 13:46:41.157";"2015-03-09 13:58:10.881";"1";"0";"0";"1";"0";"90";"89";"module.training_block3.exec-9343.GoNoGo3";;;;;;;;;;;;;;;;;;;;;;;;;"1261";"2015-03-09 13:51:39.913";"NST_correctLoc";"0";"1";"FINISHED";"RIGHT";"success";"518";"0";"2015-03-09 13:51:38.650";"1";;;;;;;;;;;;;;;;;;;;;;;;;;;;;;;;;;;;;;;;;;;;;;;;;;;;;
"2013_022";"1995";;"Windows 7";"Rachel's Experiment (SCIAT)";"1.0";"1";"1";"1";"1";"1";"1";"2015-03-09 13:46:41.157";"2015-03-09 13:58:10.881";"1";"0";"0";"1";"0";"91";"90";"module.training_block3.exec-9343.GoNoGo3";;;;;;;;;;;;;;;;;;;;;;;;;"1261";"2015-03-09 13:51:42.456";"NST_correctLoc";"1";"0";"FINISHED";"LEFT";"success";"415";"0";"2015-03-09 13:51:41.193";"1";;;;;;;;;;;;;;;;;;;;;;;;;;;;;;;;;;;;;;;;;;;;;;;;;;;;;
"2013_022";"1995";;"Windows 7";"Rachel's Experiment (SCIAT)";"1.0";"1";"1";"1";"1";"1";"1";"2015-03-09 13:46:41.157";"2015-03-09 13:58:10.881";"1";"0";"0";"1";"0";"92";"91";"module.training_block3.exec-9343.GoNoGo3";;;;;;;;;;;;;;;;;;;;;;;;;"1261";"2015-03-09 13:51:44.999";"NST_correctLoc";"35";"1";"FINISHED";"RIGHT";"success";"1057";"0";"2015-03-09 13:51:43.735";"3";;;;;;;;;;;;;;;;;;;;;;;;;;;;;;;;;;;;;;;;;;;;;;;;;;;;;
"2013_022";"1995";;"Windows 7";"Rachel's Experiment (SCIAT)";"1.0";"1";"1";"1";"1";"1";"1";"2015-03-09 13:46:41.157";"2015-03-09 13:58:10.881";"1";"0";"0";"1";"0";"93";"92";"module.training_block3.exec-9343.GoNoGo3";;;;;;;;;;;;;;;;;;;;;;;;;"1261";"2015-03-09 13:51:47.542";"NST_correctLoc";"3";"0";"FINISHED";"LEFT";"success";"530";"0";"2015-03-09 13:51:46.278";"1";;;;;;;;;;;;;;;;;;;;;;;;;;;;;;;;;;;;;;;;;;;;;;;;;;;;;
"2013_022";"1995";;"Windows 7";"Rachel's Experiment (SCIAT)";"1.0";"1";"1";"1";"1";"1";"1";"2015-03-09 13:46:41.157";"2015-03-09 13:58:10.881";"1";"0";"0";"1";"0";"94";"93";"module.training_block3.exec-9343.GoNoGo3";;;;;;;;;;;;;;;;;;;;;;;;;"1261";"2015-03-09 13:51:50.085";"NST_correctLoc";"20";"0";"FINISHED";"LEFT";"success";"515";"0";"2015-03-09 13:51:48.821";"3";;;;;;;;;;;;;;;;;;;;;;;;;;;;;;;;;;;;;;;;;;;;;;;;;;;;;
"2013_022";"1995";;"Windows 7";"Rachel's Experiment (SCIAT)";"1.0";"1";"1";"1";"1";"1";"1";"2015-03-09 13:46:41.157";"2015-03-09 13:58:10.881";"1";"0";"0";"1";"0";"95";"94";"module.training_block3.exec-9343.GoNoGo3";;;;;;;;;;;;;;;;;;;;;;;;;"1261";"2015-03-09 13:51:52.627";"NST_correctLoc";"24";"1";"FINISHED";"RIGHT";"success";"724";"0";"2015-03-09 13:51:51.364";"3";;;;;;;;;;;;;;;;;;;;;;;;;;;;;;;;;;;;;;;;;;;;;;;;;;;;;
"2013_022";"1995";;"Windows 7";"Rachel's Experiment (SCIAT)";"1.0";"1";"1";"1";"1";"1";"1";"2015-03-09 13:46:41.157";"2015-03-09 13:58:10.881";"1";"0";"0";"1";"0";"96";"95";"module.training_block3.exec-9343.GoNoGo3";;;;;;;;;;;;;;;;;;;;;;;;;"1261";"2015-03-09 13:51:55.170";"NST_correctLoc";"11";"0";"FINISHED";"LEFT";"success";"573";"0";"2015-03-09 13:51:53.907";"2";;;;;;;;;;;;;;;;;;;;;;;;;;;;;;;;;;;;;;;;;;;;;;;;;;;;;
"2013_022";"1995";;"Windows 7";"Rachel's Experiment (SCIAT)";"1.0";"1";"1";"1";"1";"1";"1";"2015-03-09 13:46:41.157";"2015-03-09 13:58:10.881";"1";"0";"0";"1";"0";"97";"96";"module.training_block3.exec-9343.GoNoGo3";;;;;;;;;;;;;;;;;;;;;;;;;"1262";"2015-03-09 13:51:57.713";"NST_correctLoc";"16";"0";"FINISHED";"LEFT";"success";"383";"0";"2015-03-09 13:51:56.449";"2";;;;;;;;;;;;;;;;;;;;;;;;;;;;;;;;;;;;;;;;;;;;;;;;;;;;;
"2013_022";"1995";;"Windows 7";"Rachel's Experiment (SCIAT)";"1.0";"1";"1";"1";"1";"1";"1";"2015-03-09 13:46:41.157";"2015-03-09 13:58:10.881";"1";"0";"0";"1";"0";"98";"97";"module.training_block3.exec-9343.GoNoGo3";;;;;;;;;;;;;;;;;;;;;;;;;"1261";"2015-03-09 13:52:00.256";"NST_correctLoc";"17";"0";"FINISHED";"LEFT";"success";"376";"0";"2015-03-09 13:51:58.992";"2";;;;;;;;;;;;;;;;;;;;;;;;;;;;;;;;;;;;;;;;;;;;;;;;;;;;;
"2013_022";"1995";;"Windows 7";"Rachel's Experiment (SCIAT)";"1.0";"1";"1";"1";"1";"1";"1";"2015-03-09 13:46:41.157";"2015-03-09 13:58:10.881";"1";"0";"0";"1";"0";"99";"98";"module.training_block3.exec-9343.GoNoGo3";;;;;;;;;;;;;;;;;;;;;;;;;"1262";"2015-03-09 13:52:02.799";"NST_correctLoc";"6";"1";"FINISHED";"RIGHT";"success";"353";"0";"2015-03-09 13:52:01.535";"1";;;;;;;;;;;;;;;;;;;;;;;;;;;;;;;;;;;;;;;;;;;;;;;;;;;;;
"2013_022";"1995";;"Windows 7";"Rachel's Experiment (SCIAT)";"1.0";"1";"1";"1";"1";"1";"1";"2015-03-09 13:46:41.157";"2015-03-09 13:58:10.881";"1";"0";"0";"1";"0";"100";"99";"module.training_block3.exec-9343.GoNoGo3";;;;;;;;;;;;;;;;;;;;;;;;;"1262";"2015-03-09 13:52:05.341";"NST_correctLoc";"8";"0";"FINISHED";"LEFT";"success";"298";"0";"2015-03-09 13:52:04.078";"1";;;;;;;;;;;;;;;;;;;;;;;;;;;;;;;;;;;;;;;;;;;;;;;;;;;;;
"2013_022";"1995";;"Windows 7";"Rachel's Experiment (SCIAT)";"1.0";"1";"1";"1";"1";"1";"1";"2015-03-09 13:46:41.157";"2015-03-09 13:58:10.881";"1";"0";"0";"1";"0";"101";"100";"module.training_block3.exec-9343.GoNoGo3";;;;;;;;;;;;;;;;;;;;;;;;;"1261";"2015-03-09 13:52:07.884";"NST_correctLoc";"23";"1";"FINISHED";"RIGHT";"success";"283";"0";"2015-03-09 13:52:06.621";"3";;;;;;;;;;;;;;;;;;;;;;;;;;;;;;;;;;;;;;;;;;;;;;;;;;;;;
"2013_022";"1995";;"Windows 7";"Rachel's Experiment (SCIAT)";"1.0";"1";"1";"1";"1";"1";"1";"2015-03-09 13:46:41.157";"2015-03-09 13:58:10.881";"1";"0";"0";"1";"0";"102";"101";"module.training_block3.exec-9343.GoNoGo3";;;;;;;;;;;;;;;;;;;;;;;;;"1261";"2015-03-09 13:52:10.427";"NST_correctLoc";"19";"0";"FINISHED";"LEFT";"success";"300";"0";"2015-03-09 13:52:09.163";"3";;;;;;;;;;;;;;;;;;;;;;;;;;;;;;;;;;;;;;;;;;;;;;;;;;;;;
"2013_022";"1995";;"Windows 7";"Rachel's Experiment (SCIAT)";"1.0";"1";"1";"1";"1";"1";"1";"2015-03-09 13:46:41.157";"2015-03-09 13:58:10.881";"1";"0";"0";"1";"0";"103";"102";"module.training_block3.exec-9343.GoNoGo3";;;;;;;;;;;;;;;;;;;;;;;;;"1261";"2015-03-09 13:52:12.970";"NST_correctLoc";"13";"1";"FINISHED";"RIGHT";"success";"286";"0";"2015-03-09 13:52:11.706";"2";;;;;;;;;;;;;;;;;;;;;;;;;;;;;;;;;;;;;;;;;;;;;;;;;;;;;
"2013_022";"1995";;"Windows 7";"Rachel's Experiment (SCIAT)";"1.0";"1";"1";"1";"1";"1";"1";"2015-03-09 13:46:41.157";"2015-03-09 13:58:10.881";"1";"0";"0";"1";"0";"104";"103";"module.training_block3.exec-9343.GoNoGo3";;;;;;;;;;;;;;;;;;;;;;;;;"1262";"2015-03-09 13:52:15.513";"NST_correctLoc";"15";"0";"FINISHED";"LEFT";"success";"399";"0";"2015-03-09 13:52:14.249";"2";;;;;;;;;;;;;;;;;;;;;;;;;;;;;;;;;;;;;;;;;;;;;;;;;;;;;
"2013_022";"1995";;"Windows 7";"Rachel's Experiment (SCIAT)";"1.0";"1";"1";"1";"1";"1";"1";"2015-03-09 13:46:41.157";"2015-03-09 13:58:10.881";"1";"0";"0";"1";"0";"105";"104";"module.training_block3.exec-9343.GoNoGo3";;;;;;;;;;;;;;;;;;;;;;;;;"1261";"2015-03-09 13:52:18.056";"NST_correctLoc";"32";"0";"FINISHED";"LEFT";"success";"552";"0";"2015-03-09 13:52:16.792";"3";;;;;;;;;;;;;;;;;;;;;;;;;;;;;;;;;;;;;;;;;;;;;;;;;;;;;
"2013_022";"1995";;"Windows 7";"Rachel's Experiment (SCIAT)";"1.0";"1";"1";"1";"1";"1";"1";"2015-03-09 13:46:41.157";"2015-03-09 13:58:10.881";"1";"0";"0";"1";"0";"106";"105";"module.training_block3.exec-9343.GoNoGo3";;;;;;;;;;;;;;;;;;;;;;;;;"1262";"2015-03-09 13:52:20.598";"NST_correctLoc";"7";"0";"FINISHED";"LEFT";"success";"361";"0";"2015-03-09 13:52:19.335";"1";;;;;;;;;;;;;;;;;;;;;;;;;;;;;;;;;;;;;;;;;;;;;;;;;;;;;
"2013_022";"1995";;"Windows 7";"Rachel's Experiment (SCIAT)";"1.0";"1";"1";"1";"1";"1";"1";"2015-03-09 13:46:41.157";"2015-03-09 13:58:10.881";"1";"0";"0";"1";"0";"107";"106";"module.training_block3.exec-9343.GoNoGo3";;;;;;;;;;;;;;;;;;;;;;;;;"1261";"2015-03-09 13:52:23.141";"NST_correctLoc";"34";"0";"FINISHED";"LEFT";"success";"434";"0";"2015-03-09 13:52:21.878";"3";;;;;;;;;;;;;;;;;;;;;;;;;;;;;;;;;;;;;;;;;;;;;;;;;;;;;
"2013_022";"1995";;"Windows 7";"Rachel's Experiment (SCIAT)";"1.0";"1";"1";"1";"1";"1";"1";"2015-03-09 13:46:41.157";"2015-03-09 13:58:10.881";"1";"0";"0";"1";"0";"108";"107";"module.training_block3.exec-9343.GoNoGo3";;;;;;;;;;;;;;;;;;;;;;;;;"1261";"2015-03-09 13:52:25.700";"NST_correctLoc";"29";"0";"FINISHED";"LEFT";"success";"412";"0";"2015-03-09 13:52:24.436";"3";;;;;;;;;;;;;;;;;;;;;;;;;;;;;;;;;;;;;;;;;;;;;;;;;;;;;
"2013_022";"1995";;"Windows 7";"Rachel's Experiment (SCIAT)";"1.0";"1";"1";"1";"1";"1";"1";"2015-03-09 13:46:41.157";"2015-03-09 13:58:10.881";"1";"0";"0";"1";"0";"109";"108";"module.training_block3.exec-9343.GoNoGo3";;;;;;;;;;;;;;;;;;;;;;;;;"1262";"2015-03-09 13:52:28.242";"NST_correctLoc";"26";"1";"FINISHED";"RIGHT";"success";"421";"0";"2015-03-09 13:52:26.979";"3";;;;;;;;;;;;;;;;;;;;;;;;;;;;;;;;;;;;;;;;;;;;;;;;;;;;;
"2013_022";"1995";;"Windows 7";"Rachel's Experiment (SCIAT)";"1.0";"1";"1";"1";"1";"1";"1";"2015-03-09 13:46:41.157";"2015-03-09 13:58:10.881";"1";"0";"0";"1";"0";"110";"109";"module.training_block3.exec-9343.GoNoGo3";;;;;;;;;;;;;;;;;;;;;;;;;"1262";"2015-03-09 13:52:30.785";"NST_correctLoc";"14";"0";"FINISHED";"LEFT";"success";"406";"0";"2015-03-09 13:52:29.522";"2";;;;;;;;;;;;;;;;;;;;;;;;;;;;;;;;;;;;;;;;;;;;;;;;;;;;;
"2013_022";"1995";;"Windows 7";"Rachel's Experiment (SCIAT)";"1.0";"1";"1";"1";"1";"1";"1";"2015-03-09 13:46:41.157";"2015-03-09 13:58:10.881";"1";"0";"0";"1";"0";"111";"110";"module.training_block3.exec-9343.GoNoGo3";;;;;;;;;;;;;;;;;;;;;;;;;"1262";"2015-03-09 13:52:33.328";"NST_correctLoc";"33";"1";"FINISHED";"RIGHT";"success";"455";"0";"2015-03-09 13:52:32.064";"3";;;;;;;;;;;;;;;;;;;;;;;;;;;;;;;;;;;;;;;;;;;;;;;;;;;;;
"2013_022";"1995";;"Windows 7";"Rachel's Experiment (SCIAT)";"1.0";"1";"1";"1";"1";"1";"1";"2015-03-09 13:46:41.157";"2015-03-09 13:58:10.881";"1";"0";"0";"1";"0";"112";"111";"module.training_block3.exec-9343.GoNoGo3";;;;;;;;;;;;;;;;;;;;;;;;;"1261";"2015-03-09 13:52:35.871";"NST_correctLoc";"30";"1";"FINISHED";"RIGHT";"success";"321";"0";"2015-03-09 13:52:34.607";"3";;;;;;;;;;;;;;;;;;;;;;;;;;;;;;;;;;;;;;;;;;;;;;;;;;;;;
"2013_022";"1995";;"Windows 7";"Rachel's Experiment (SCIAT)";"1.0";"1";"1";"1";"1";"1";"1";"2015-03-09 13:46:41.157";"2015-03-09 13:58:10.881";"1";"0";"0";"1";"0";"113";"112";"module.training_block3.exec-9343.GoNoGo3";;;;;;;;;;;;;;;;;;;;;;;;;"1261";"2015-03-09 13:52:38.414";"NST_correctLoc";"21";"0";"FINISHED";"LEFT";"success";"338";"0";"2015-03-09 13:52:37.150";"3";;;;;;;;;;;;;;;;;;;;;;;;;;;;;;;;;;;;;;;;;;;;;;;;;;;;;
"2013_022";"1995";;"Windows 7";"Rachel's Experiment (SCIAT)";"1.0";"1";"1";"1";"1";"1";"1";"2015-03-09 13:46:41.157";"2015-03-09 13:58:10.881";"1";"0";"0";"1";"0";"114";"113";"module.training_block3.exec-9343.GoNoGo3";;;;;;;;;;;;;;;;;;;;;;;;;"1262";"2015-03-09 13:52:40.956";"NST_correctLoc";"4";"1";"FINISHED";"RIGHT";"success";"395";"0";"2015-03-09 13:52:39.693";"1";;;;;;;;;;;;;;;;;;;;;;;;;;;;;;;;;;;;;;;;;;;;;;;;;;;;;
"2013_022";"1995";;"Windows 7";"Rachel's Experiment (SCIAT)";"1.0";"1";"1";"1";"1";"1";"1";"2015-03-09 13:46:41.157";"2015-03-09 13:58:10.881";"1";"0";"0";"1";"0";"115";"114";"module.training_block3.exec-9343.GoNoGo3";;;;;;;;;;;;;;;;;;;;;;;;;"1261";"2015-03-09 13:52:43.499";"NST_correctLoc";"5";"1";"FINISHED";"RIGHT";"success";"388";"0";"2015-03-09 13:52:42.236";"1";;;;;;;;;;;;;;;;;;;;;;;;;;;;;;;;;;;;;;;;;;;;;;;;;;;;;
"2013_022";"1995";;"Windows 7";"Rachel's Experiment (SCIAT)";"1.0";"1";"1";"1";"1";"1";"1";"2015-03-09 13:46:41.157";"2015-03-09 13:58:10.881";"1";"0";"0";"1";"0";"116";"115";"module.training_block3.exec-9343.GoNoGo3";;;;;;;;;;;;;;;;;;;;;;;;;"1262";"2015-03-09 13:52:46.042";"NST_correctLoc";"10";"0";"FINISHED";"LEFT";"success";"293";"0";"2015-03-09 13:52:44.778";"2";;;;;;;;;;;;;;;;;;;;;;;;;;;;;;;;;;;;;;;;;;;;;;;;;;;;;
"2013_022";"1995";;"Windows 7";"Rachel's Experiment (SCIAT)";"1.0";"1";"1";"1";"1";"1";"1";"2015-03-09 13:46:41.157";"2015-03-09 13:58:10.881";"1";"0";"0";"1";"0";"117";"116";"module.training_block3.exec-9343.GoNoGo3";;;;;;;;;;;;;;;;;;;;;;;;;"1262";"2015-03-09 13:52:48.585";"NST_correctLoc";"31";"0";"FINISHED";"LEFT";"success";"471";"0";"2015-03-09 13:52:47.321";"3";;;;;;;;;;;;;;;;;;;;;;;;;;;;;;;;;;;;;;;;;;;;;;;;;;;;;
"2013_022";"1995";;"Windows 7";"Rachel's Experiment (SCIAT)";"1.0";"1";"1";"1";"1";"1";"1";"2015-03-09 13:46:41.157";"2015-03-09 13:58:10.881";"1";"0";"0";"1";"0";"118";"117";"module.training_block3.exec-9343.GoNoGo3";;;;;;;;;;;;;;;;;;;;;;;;;"1261";"2015-03-09 13:52:51.128";"NST_correctLoc";"2";"1";"FINISHED";"RIGHT";"success";"328";"0";"2015-03-09 13:52:49.864";"1";;;;;;;;;;;;;;;;;;;;;;;;;;;;;;;;;;;;;;;;;;;;;;;;;;;;;
"2013_022";"1995";;"Windows 7";"Rachel's Experiment (SCIAT)";"1.0";"1";"1";"1";"1";"1";"1";"2015-03-09 13:46:41.157";"2015-03-09 13:58:10.881";"1";"0";"0";"1";"0";"119";"118";"module.training_block3.exec-9343.GoNoGo3";;;;;;;;;;;;;;;;;;;;;;;;;"1261";"2015-03-09 13:52:53.670";"NST_correctLoc";"28";"0";"FINISHED";"LEFT";"success";"305";"0";"2015-03-09 13:52:52.407";"3";;;;;;;;;;;;;;;;;;;;;;;;;;;;;;;;;;;;;;;;;;;;;;;;;;;;;
"2013_022";"1995";;"Windows 7";"Rachel's Experiment (SCIAT)";"1.0";"1";"1";"1";"1";"1";"1";"2015-03-09 13:46:41.157";"2015-03-09 13:58:10.881";"1";"0";"0";"1";"0";"120";"119";"module.training_block3.exec-9343.GoNoGo3";;;;;;;;;;;;;;;;;;;;;;;;;"1261";"2015-03-09 13:52:56.213";"NST_correctLoc";"25";"0";"FINISHED";"LEFT";"success";"378";"0";"2015-03-09 13:52:54.950";"3";;;;;;;;;;;;;;;;;;;;;;;;;;;;;;;;;;;;;;;;;;;;;;;;;;;;;
"2013_022";"1995";;"Windows 7";"Rachel's Experiment (SCIAT)";"1.0";"1";"1";"1";"1";"1";"1";"2015-03-09 13:46:41.157";"2015-03-09 13:58:10.881";"1";"0";"0";"1";"0";"121";"120";"module.training_block3.exec-9343.GoNoGo3";;;;;;;;;;;;;;;;;;;;;;;;;"1261";"2015-03-09 13:52:58.756";"NST_correctLoc";"9";"0";"FINISHED";"LEFT";"success";"379";"0";"2015-03-09 13:52:57.492";"2";;;;;;;;;;;;;;;;;;;;;;;;;;;;;;;;;;;;;;;;;;;;;;;;;;;;;
"2013_022";"1995";;"Windows 7";"Rachel's Experiment (SCIAT)";"1.0";"1";"1";"1";"1";"1";"1";"2015-03-09 13:46:41.157";"2015-03-09 13:58:10.881";"1";"0";"0";"1";"0";"122";"121";"module.training_block3.exec-9343.GoNoGo3";;;;;;;;;;;;;;;;;;;;;;;;;"1262";"2015-03-09 13:53:01.299";"NST_correctLoc";"12";"1";"FINISHED";"RIGHT";"success";"316";"0";"2015-03-09 13:53:00.035";"2";;;;;;;;;;;;;;;;;;;;;;;;;;;;;;;;;;;;;;;;;;;;;;;;;;;;;
"2013_022";"1995";;"Windows 7";"Rachel's Experiment (SCIAT)";"1.0";"1";"1";"1";"1";"1";"1";"2015-03-09 13:46:41.157";"2015-03-09 13:58:10.881";"1";"0";"0";"1";"0";"123";"122";"module.training_block3.exec-9343.GoNoGo3";;;;;;;;;;;;;;;;;;;;;;;;;"1261";"2015-03-09 13:53:03.842";"NST_correctLoc";"22";"1";"FINISHED";"RIGHT";"success";"398";"0";"2015-03-09 13:53:02.578";"3";;;;;;;;;;;;;;;;;;;;;;;;;;;;;;;;;;;;;;;;;;;;;;;;;;;;;
"2013_022";"1995";;"Windows 7";"Rachel's Experiment (SCIAT)";"1.0";"1";"1";"1";"1";"1";"1";"2015-03-09 13:46:41.157";"2015-03-09 13:58:10.881";"1";"0";"0";"1";"0";"124";"123";"module.training_block4.exec-3349.GoNoGo4";;;;;;;;;;;;;;;;;;;;;;;;;;;;;;;;;;;;;"1261";"2015-03-09 13:53:14.060";"NST_correctLoc";"26";"1";"FINISHED";"RIGHT";"success";"1163";"0";"2015-03-09 13:53:12.796";"3";;;;;;;;;;;;;;;;;;;;;;;;;;;;;;;;;;;;;;;;;
"2013_022";"1995";;"Windows 7";"Rachel's Experiment (SCIAT)";"1.0";"1";"1";"1";"1";"1";"1";"2015-03-09 13:46:41.157";"2015-03-09 13:58:10.881";"1";"0";"0";"1";"0";"125";"124";"module.training_block4.exec-3349.GoNoGo4";;;;;;;;;;;;;;;;;;;;;;;;;;;;;;;;;;;;;"1261";"2015-03-09 13:53:16.602";"NST_correctLoc";"12";"1";"FINISHED";"RIGHT";"success";"636";"0";"2015-03-09 13:53:15.339";"2";;;;;;;;;;;;;;;;;;;;;;;;;;;;;;;;;;;;;;;;;
"2013_022";"1995";;"Windows 7";"Rachel's Experiment (SCIAT)";"1.0";"1";"1";"1";"1";"1";"1";"2015-03-09 13:46:41.157";"2015-03-09 13:58:10.881";"1";"0";"0";"1";"0";"126";"125";"module.training_block4.exec-3349.GoNoGo4";;;;;;;;;;;;;;;;;;;;;;;;;;;;;;;;;;;;;"1261";"2015-03-09 13:53:19.145";"NST_correctLoc";"34";"1";"FINISHED";"RIGHT";"success";"558";"0";"2015-03-09 13:53:17.882";"3";;;;;;;;;;;;;;;;;;;;;;;;;;;;;;;;;;;;;;;;;
"2013_022";"1995";;"Windows 7";"Rachel's Experiment (SCIAT)";"1.0";"1";"1";"1";"1";"1";"1";"2015-03-09 13:46:41.157";"2015-03-09 13:58:10.881";"1";"0";"0";"1";"0";"127";"126";"module.training_block4.exec-3349.GoNoGo4";;;;;;;;;;;;;;;;;;;;;;;;;;;;;;;;;;;;;"1261";"2015-03-09 13:53:21.688";"NST_wrongLoc";"28";"0";"FINISHED";"RIGHT";"failure";"623";"0";"2015-03-09 13:53:20.424";"3";;;;;;;;;;;;;;;;;;;;;;;;;;;;;;;;;;;;;;;;;
"2013_022";"1995";;"Windows 7";"Rachel's Experiment (SCIAT)";"1.0";"1";"1";"1";"1";"1";"1";"2015-03-09 13:46:41.157";"2015-03-09 13:58:10.881";"1";"0";"0";"1";"0";"128";"127";"module.training_block4.exec-3349.GoNoGo4";;;;;;;;;;;;;;;;;;;;;;;;;;;;;;;;;;;;;"1261";"2015-03-09 13:53:24.231";"NST_correctLoc";"6";"1";"FINISHED";"RIGHT";"success";"456";"0";"2015-03-09 13:53:22.967";"1";;;;;;;;;;;;;;;;;;;;;;;;;;;;;;;;;;;;;;;;;
"2013_022";"1995";;"Windows 7";"Rachel's Experiment (SCIAT)";"1.0";"1";"1";"1";"1";"1";"1";"2015-03-09 13:46:41.157";"2015-03-09 13:58:10.881";"1";"0";"0";"1";"0";"129";"128";"module.training_block4.exec-3349.GoNoGo4";;;;;;;;;;;;;;;;;;;;;;;;;;;;;;;;;;;;;"1261";"2015-03-09 13:53:26.774";"NST_correctLoc";"9";"0";"FINISHED";"LEFT";"success";"441";"0";"2015-03-09 13:53:25.510";"2";;;;;;;;;;;;;;;;;;;;;;;;;;;;;;;;;;;;;;;;;
"2013_022";"1995";;"Windows 7";"Rachel's Experiment (SCIAT)";"1.0";"1";"1";"1";"1";"1";"1";"2015-03-09 13:46:41.157";"2015-03-09 13:58:10.881";"1";"0";"0";"1";"0";"130";"129";"module.training_block4.exec-3349.GoNoGo4";;;;;;;;;;;;;;;;;;;;;;;;;;;;;;;;;;;;;"1262";"2015-03-09 13:53:29.332";"NST_correctLoc";"15";"0";"FINISHED";"LEFT";"success";"379";"0";"2015-03-09 13:53:28.068";"2";;;;;;;;;;;;;;;;;;;;;;;;;;;;;;;;;;;;;;;;;
"2013_022";"1995";;"Windows 7";"Rachel's Experiment (SCIAT)";"1.0";"1";"1";"1";"1";"1";"1";"2015-03-09 13:46:41.157";"2015-03-09 13:58:10.881";"1";"0";"0";"1";"0";"131";"130";"module.training_block4.exec-3349.GoNoGo4";;;;;;;;;;;;;;;;;;;;;;;;;;;;;;;;;;;;;"1261";"2015-03-09 13:53:31.875";"NST_correctLoc";"5";"1";"FINISHED";"RIGHT";"success";"484";"0";"2015-03-09 13:53:30.611";"1";;;;;;;;;;;;;;;;;;;;;;;;;;;;;;;;;;;;;;;;;
"2013_022";"1995";;"Windows 7";"Rachel's Experiment (SCIAT)";"1.0";"1";"1";"1";"1";"1";"1";"2015-03-09 13:46:41.157";"2015-03-09 13:58:10.881";"1";"0";"0";"1";"0";"132";"131";"module.training_block4.exec-3349.GoNoGo4";;;;;;;;;;;;;;;;;;;;;;;;;;;;;;;;;;;;;"1261";"2015-03-09 13:53:34.418";"NST_correctLoc";"4";"0";"FINISHED";"LEFT";"success";"677";"0";"2015-03-09 13:53:33.154";"1";;;;;;;;;;;;;;;;;;;;;;;;;;;;;;;;;;;;;;;;;
"2013_022";"1995";;"Windows 7";"Rachel's Experiment (SCIAT)";"1.0";"1";"1";"1";"1";"1";"1";"2015-03-09 13:46:41.157";"2015-03-09 13:58:10.881";"1";"0";"0";"1";"0";"133";"132";"module.training_block4.exec-3349.GoNoGo4";;;;;;;;;;;;;;;;;;;;;;;;;;;;;;;;;;;;;"1261";"2015-03-09 13:53:36.960";"NST_correctLoc";"1";"1";"FINISHED";"RIGHT";"success";"550";"0";"2015-03-09 13:53:35.697";"1";;;;;;;;;;;;;;;;;;;;;;;;;;;;;;;;;;;;;;;;;
"2013_022";"1995";;"Windows 7";"Rachel's Experiment (SCIAT)";"1.0";"1";"1";"1";"1";"1";"1";"2015-03-09 13:46:41.157";"2015-03-09 13:58:10.881";"1";"0";"0";"1";"0";"134";"133";"module.training_block4.exec-3349.GoNoGo4";;;;;;;;;;;;;;;;;;;;;;;;;;;;;;;;;;;;;"1261";"2015-03-09 13:53:39.503";"NST_correctLoc";"10";"1";"FINISHED";"RIGHT";"success";"968";"0";"2015-03-09 13:53:38.240";"2";;;;;;;;;;;;;;;;;;;;;;;;;;;;;;;;;;;;;;;;;
"2013_022";"1995";;"Windows 7";"Rachel's Experiment (SCIAT)";"1.0";"1";"1";"1";"1";"1";"1";"2015-03-09 13:46:41.157";"2015-03-09 13:58:10.881";"1";"0";"0";"1";"0";"135";"134";"module.training_block4.exec-3349.GoNoGo4";;;;;;;;;;;;;;;;;;;;;;;;;;;;;;;;;;;;;"1261";"2015-03-09 13:53:42.030";"NST_correctLoc";"35";"0";"FINISHED";"LEFT";"success";"1144";"0";"2015-03-09 13:53:40.767";"3";;;;;;;;;;;;;;;;;;;;;;;;;;;;;;;;;;;;;;;;;
"2013_022";"1995";;"Windows 7";"Rachel's Experiment (SCIAT)";"1.0";"1";"1";"1";"1";"1";"1";"2015-03-09 13:46:41.157";"2015-03-09 13:58:10.881";"1";"0";"0";"1";"0";"136";"135";"module.training_block4.exec-3349.GoNoGo4";;;;;;;;;;;;;;;;;;;;;;;;;;;;;;;;;;;;;"1261";"2015-03-09 13:53:44.573";"NST_correctLoc";"31";"1";"FINISHED";"RIGHT";"success";"682";"0";"2015-03-09 13:53:43.310";"3";;;;;;;;;;;;;;;;;;;;;;;;;;;;;;;;;;;;;;;;;
"2013_022";"1995";;"Windows 7";"Rachel's Experiment (SCIAT)";"1.0";"1";"1";"1";"1";"1";"1";"2015-03-09 13:46:41.157";"2015-03-09 13:58:10.881";"1";"0";"0";"1";"0";"137";"136";"module.training_block4.exec-3349.GoNoGo4";;;;;;;;;;;;;;;;;;;;;;;;;;;;;;;;;;;;;"1262";"2015-03-09 13:53:47.132";"NST_correctLoc";"18";"0";"FINISHED";"LEFT";"success";"451";"0";"2015-03-09 13:53:45.868";"3";;;;;;;;;;;;;;;;;;;;;;;;;;;;;;;;;;;;;;;;;
"2013_022";"1995";;"Windows 7";"Rachel's Experiment (SCIAT)";"1.0";"1";"1";"1";"1";"1";"1";"2015-03-09 13:46:41.157";"2015-03-09 13:58:10.881";"1";"0";"0";"1";"0";"138";"137";"module.training_block4.exec-3349.GoNoGo4";;;;;;;;;;;;;;;;;;;;;;;;;;;;;;;;;;;;;"1262";"2015-03-09 13:53:49.674";"NST_correctLoc";"16";"0";"FINISHED";"LEFT";"success";"452";"0";"2015-03-09 13:53:48.411";"2";;;;;;;;;;;;;;;;;;;;;;;;;;;;;;;;;;;;;;;;;
"2013_022";"1995";;"Windows 7";"Rachel's Experiment (SCIAT)";"1.0";"1";"1";"1";"1";"1";"1";"2015-03-09 13:46:41.157";"2015-03-09 13:58:10.881";"1";"0";"0";"1";"0";"139";"138";"module.training_block4.exec-3349.GoNoGo4";;;;;;;;;;;;;;;;;;;;;;;;;;;;;;;;;;;;;"1262";"2015-03-09 13:53:52.217";"NST_correctLoc";"24";"0";"FINISHED";"LEFT";"success";"358";"0";"2015-03-09 13:53:50.954";"3";;;;;;;;;;;;;;;;;;;;;;;;;;;;;;;;;;;;;;;;;
"2013_022";"1995";;"Windows 7";"Rachel's Experiment (SCIAT)";"1.0";"1";"1";"1";"1";"1";"1";"2015-03-09 13:46:41.157";"2015-03-09 13:58:10.881";"1";"0";"0";"1";"0";"140";"139";"module.training_block4.exec-3349.GoNoGo4";;;;;;;;;;;;;;;;;;;;;;;;;;;;;;;;;;;;;"1262";"2015-03-09 13:53:54.760";"NST_correctLoc";"3";"0";"FINISHED";"LEFT";"success";"479";"0";"2015-03-09 13:53:53.496";"1";;;;;;;;;;;;;;;;;;;;;;;;;;;;;;;;;;;;;;;;;
"2013_022";"1995";;"Windows 7";"Rachel's Experiment (SCIAT)";"1.0";"1";"1";"1";"1";"1";"1";"2015-03-09 13:46:41.157";"2015-03-09 13:58:10.881";"1";"0";"0";"1";"0";"141";"140";"module.training_block4.exec-3349.GoNoGo4";;;;;;;;;;;;;;;;;;;;;;;;;;;;;;;;;;;;;"1262";"2015-03-09 13:53:57.303";"NST_correctLoc";"21";"1";"FINISHED";"RIGHT";"success";"376";"0";"2015-03-09 13:53:56.039";"3";;;;;;;;;;;;;;;;;;;;;;;;;;;;;;;;;;;;;;;;;
"2013_022";"1995";;"Windows 7";"Rachel's Experiment (SCIAT)";"1.0";"1";"1";"1";"1";"1";"1";"2015-03-09 13:46:41.157";"2015-03-09 13:58:10.881";"1";"0";"0";"1";"0";"142";"141";"module.training_block4.exec-3349.GoNoGo4";;;;;;;;;;;;;;;;;;;;;;;;;;;;;;;;;;;;;"1262";"2015-03-09 13:53:59.846";"NST_correctLoc";"19";"0";"FINISHED";"LEFT";"success";"321";"0";"2015-03-09 13:53:58.582";"3";;;;;;;;;;;;;;;;;;;;;;;;;;;;;;;;;;;;;;;;;
"2013_022";"1995";;"Windows 7";"Rachel's Experiment (SCIAT)";"1.0";"1";"1";"1";"1";"1";"1";"2015-03-09 13:46:41.157";"2015-03-09 13:58:10.881";"1";"0";"0";"1";"0";"143";"142";"module.training_block4.exec-3349.GoNoGo4";;;;;;;;;;;;;;;;;;;;;;;;;;;;;;;;;;;;;"1262";"2015-03-09 13:54:02.388";"NST_correctLoc";"8";"1";"FINISHED";"RIGHT";"success";"394";"0";"2015-03-09 13:54:01.125";"1";;;;;;;;;;;;;;;;;;;;;;;;;;;;;;;;;;;;;;;;;
"2013_022";"1995";;"Windows 7";"Rachel's Experiment (SCIAT)";"1.0";"1";"1";"1";"1";"1";"1";"2015-03-09 13:46:41.157";"2015-03-09 13:58:10.881";"1";"0";"0";"1";"0";"144";"143";"module.training_block4.exec-3349.GoNoGo4";;;;;;;;;;;;;;;;;;;;;;;;;;;;;;;;;;;;;"1261";"2015-03-09 13:54:04.931";"NST_correctLoc";"23";"0";"FINISHED";"LEFT";"success";"451";"0";"2015-03-09 13:54:03.668";"3";;;;;;;;;;;;;;;;;;;;;;;;;;;;;;;;;;;;;;;;;
"2013_022";"1995";;"Windows 7";"Rachel's Experiment (SCIAT)";"1.0";"1";"1";"1";"1";"1";"1";"2015-03-09 13:46:41.157";"2015-03-09 13:58:10.881";"1";"0";"0";"1";"0";"145";"144";"module.training_block4.exec-3349.GoNoGo4";;;;;;;;;;;;;;;;;;;;;;;;;;;;;;;;;;;;;"1262";"2015-03-09 13:54:07.474";"NST_correctLoc";"22";"1";"FINISHED";"RIGHT";"success";"485";"0";"2015-03-09 13:54:06.211";"3";;;;;;;;;;;;;;;;;;;;;;;;;;;;;;;;;;;;;;;;;
"2013_022";"1995";;"Windows 7";"Rachel's Experiment (SCIAT)";"1.0";"1";"1";"1";"1";"1";"1";"2015-03-09 13:46:41.157";"2015-03-09 13:58:10.881";"1";"0";"0";"1";"0";"146";"145";"module.training_block4.exec-3349.GoNoGo4";;;;;;;;;;;;;;;;;;;;;;;;;;;;;;;;;;;;;"1262";"2015-03-09 13:54:10.033";"NST_correctLoc";"17";"0";"FINISHED";"LEFT";"success";"558";"0";"2015-03-09 13:54:08.769";"2";;;;;;;;;;;;;;;;;;;;;;;;;;;;;;;;;;;;;;;;;
"2013_022";"1995";;"Windows 7";"Rachel's Experiment (SCIAT)";"1.0";"1";"1";"1";"1";"1";"1";"2015-03-09 13:46:41.157";"2015-03-09 13:58:10.881";"1";"0";"0";"1";"0";"147";"146";"module.training_block4.exec-3349.GoNoGo4";;;;;;;;;;;;;;;;;;;;;;;;;;;;;;;;;;;;;"1262";"2015-03-09 13:54:12.575";"NST_correctLoc";"32";"0";"FINISHED";"LEFT";"success";"367";"0";"2015-03-09 13:54:11.312";"3";;;;;;;;;;;;;;;;;;;;;;;;;;;;;;;;;;;;;;;;;
"2013_022";"1995";;"Windows 7";"Rachel's Experiment (SCIAT)";"1.0";"1";"1";"1";"1";"1";"1";"2015-03-09 13:46:41.157";"2015-03-09 13:58:10.881";"1";"0";"0";"1";"0";"148";"147";"module.training_block4.exec-3349.GoNoGo4";;;;;;;;;;;;;;;;;;;;;;;;;;;;;;;;;;;;;"1261";"2015-03-09 13:54:15.118";"NST_correctLoc";"7";"1";"FINISHED";"RIGHT";"success";"473";"0";"2015-03-09 13:54:13.855";"1";;;;;;;;;;;;;;;;;;;;;;;;;;;;;;;;;;;;;;;;;
"2013_022";"1995";;"Windows 7";"Rachel's Experiment (SCIAT)";"1.0";"1";"1";"1";"1";"1";"1";"2015-03-09 13:46:41.157";"2015-03-09 13:58:10.881";"1";"0";"0";"1";"0";"149";"148";"module.training_block4.exec-3349.GoNoGo4";;;;;;;;;;;;;;;;;;;;;;;;;;;;;;;;;;;;;"1262";"2015-03-09 13:54:17.661";"NST_correctLoc";"20";"1";"FINISHED";"RIGHT";"success";"538";"0";"2015-03-09 13:54:16.397";"3";;;;;;;;;;;;;;;;;;;;;;;;;;;;;;;;;;;;;;;;;
"2013_022";"1995";;"Windows 7";"Rachel's Experiment (SCIAT)";"1.0";"1";"1";"1";"1";"1";"1";"2015-03-09 13:46:41.157";"2015-03-09 13:58:10.881";"1";"0";"0";"1";"0";"150";"149";"module.training_block4.exec-3349.GoNoGo4";;;;;;;;;;;;;;;;;;;;;;;;;;;;;;;;;;;;;"1261";"2015-03-09 13:54:20.204";"NST_correctLoc";"27";"0";"FINISHED";"LEFT";"success";"587";"0";"2015-03-09 13:54:18.940";"3";;;;;;;;;;;;;;;;;;;;;;;;;;;;;;;;;;;;;;;;;
"2013_022";"1995";;"Windows 7";"Rachel's Experiment (SCIAT)";"1.0";"1";"1";"1";"1";"1";"1";"2015-03-09 13:46:41.157";"2015-03-09 13:58:10.881";"1";"0";"0";"1";"0";"151";"150";"module.training_block4.exec-3349.GoNoGo4";;;;;;;;;;;;;;;;;;;;;;;;;;;;;;;;;;;;;"1262";"2015-03-09 13:54:22.747";"NST_correctLoc";"2";"1";"FINISHED";"RIGHT";"success";"580";"0";"2015-03-09 13:54:21.483";"1";;;;;;;;;;;;;;;;;;;;;;;;;;;;;;;;;;;;;;;;;
"2013_022";"1995";;"Windows 7";"Rachel's Experiment (SCIAT)";"1.0";"1";"1";"1";"1";"1";"1";"2015-03-09 13:46:41.157";"2015-03-09 13:58:10.881";"1";"0";"0";"1";"0";"152";"151";"module.training_block4.exec-3349.GoNoGo4";;;;;;;;;;;;;;;;;;;;;;;;;;;;;;;;;;;;;"1262";"2015-03-09 13:54:25.289";"NST_correctLoc";"0";"0";"FINISHED";"LEFT";"success";"469";"0";"2015-03-09 13:54:24.026";"1";;;;;;;;;;;;;;;;;;;;;;;;;;;;;;;;;;;;;;;;;
"2013_022";"1995";;"Windows 7";"Rachel's Experiment (SCIAT)";"1.0";"1";"1";"1";"1";"1";"1";"2015-03-09 13:46:41.157";"2015-03-09 13:58:10.881";"1";"0";"0";"1";"0";"153";"152";"module.training_block4.exec-3349.GoNoGo4";;;;;;;;;;;;;;;;;;;;;;;;;;;;;;;;;;;;;"1261";"2015-03-09 13:54:27.848";"NST_correctLoc";"11";"1";"FINISHED";"RIGHT";"success";"983";"0";"2015-03-09 13:54:26.584";"2";;;;;;;;;;;;;;;;;;;;;;;;;;;;;;;;;;;;;;;;;
"2013_022";"1995";;"Windows 7";"Rachel's Experiment (SCIAT)";"1.0";"1";"1";"1";"1";"1";"1";"2015-03-09 13:46:41.157";"2015-03-09 13:58:10.881";"1";"0";"0";"1";"0";"154";"153";"module.training_block4.exec-3349.GoNoGo4";;;;;;;;;;;;;;;;;;;;;;;;;;;;;;;;;;;;;"1261";"2015-03-09 13:54:30.391";"NST_correctLoc";"13";"0";"FINISHED";"LEFT";"success";"320";"0";"2015-03-09 13:54:29.127";"2";;;;;;;;;;;;;;;;;;;;;;;;;;;;;;;;;;;;;;;;;
"2013_022";"1995";;"Windows 7";"Rachel's Experiment (SCIAT)";"1.0";"1";"1";"1";"1";"1";"1";"2015-03-09 13:46:41.157";"2015-03-09 13:58:10.881";"1";"0";"0";"1";"0";"155";"154";"module.training_block4.exec-3349.GoNoGo4";;;;;;;;;;;;;;;;;;;;;;;;;;;;;;;;;;;;;"1262";"2015-03-09 13:54:32.949";"NST_correctLoc";"29";"0";"FINISHED";"LEFT";"success";"386";"0";"2015-03-09 13:54:31.685";"3";;;;;;;;;;;;;;;;;;;;;;;;;;;;;;;;;;;;;;;;;
"2013_022";"1995";;"Windows 7";"Rachel's Experiment (SCIAT)";"1.0";"1";"1";"1";"1";"1";"1";"2015-03-09 13:46:41.157";"2015-03-09 13:58:10.881";"1";"0";"0";"1";"0";"156";"155";"module.training_block4.exec-3349.GoNoGo4";;;;;;;;;;;;;;;;;;;;;;;;;;;;;;;;;;;;;"1262";"2015-03-09 13:54:35.492";"NST_correctLoc";"33";"1";"FINISHED";"RIGHT";"success";"315";"0";"2015-03-09 13:54:34.228";"3";;;;;;;;;;;;;;;;;;;;;;;;;;;;;;;;;;;;;;;;;
"2013_022";"1995";;"Windows 7";"Rachel's Experiment (SCIAT)";"1.0";"1";"1";"1";"1";"1";"1";"2015-03-09 13:46:41.157";"2015-03-09 13:58:10.881";"1";"0";"0";"1";"0";"157";"156";"module.training_block4.exec-3349.GoNoGo4";;;;;;;;;;;;;;;;;;;;;;;;;;;;;;;;;;;;;"1262";"2015-03-09 13:54:38.035";"NST_correctLoc";"14";"0";"FINISHED";"LEFT";"success";"380";"0";"2015-03-09 13:54:36.771";"2";;;;;;;;;;;;;;;;;;;;;;;;;;;;;;;;;;;;;;;;;
"2013_022";"1995";;"Windows 7";"Rachel's Experiment (SCIAT)";"1.0";"1";"1";"1";"1";"1";"1";"2015-03-09 13:46:41.157";"2015-03-09 13:58:10.881";"1";"0";"0";"1";"0";"158";"157";"module.training_block4.exec-3349.GoNoGo4";;;;;;;;;;;;;;;;;;;;;;;;;;;;;;;;;;;;;"1262";"2015-03-09 13:54:40.577";"NST_correctLoc";"25";"1";"FINISHED";"RIGHT";"success";"445";"0";"2015-03-09 13:54:39.314";"3";;;;;;;;;;;;;;;;;;;;;;;;;;;;;;;;;;;;;;;;;
"2013_022";"1995";;"Windows 7";"Rachel's Experiment (SCIAT)";"1.0";"1";"1";"1";"1";"1";"1";"2015-03-09 13:46:41.157";"2015-03-09 13:58:10.881";"1";"0";"0";"1";"0";"159";"158";"module.training_block4.exec-3349.GoNoGo4";;;;;;;;;;;;;;;;;;;;;;;;;;;;;;;;;;;;;"1262";"2015-03-09 13:54:43.120";"NST_correctLoc";"30";"0";"FINISHED";"LEFT";"success";"630";"0";"2015-03-09 13:54:41.857";"3";;;;;;;;;;;;;;;;;;;;;;;;;;;;;;;;;;;;;;;;;
"2013_022";"1995";;"Windows 7";"Rachel's Experiment (SCIAT)";"1.0";"1";"1";"1";"1";"1";"1";"2015-03-09 13:46:41.157";"2015-03-09 13:58:10.881";"1";"0";"0";"1";"0";"160";"159";"module.IAT_practice1.exec-3770.IAT_Practice1";;;;;;;;;;;;;;;;;;;;;;;;;;;;;;;;;;;;;;;;;;;;;;;;;;;;;;;;;;;;;;;;;;;;;;;;;;;;;;;;"1720";"2015-03-09 13:55:06.130";"FINISHED";"NEUTRAL";"success";"1158";"2015-03-09 13:55:04.399";"IAT_Ppractice.csv";"2";"average"
"2013_022";"1995";;"Windows 7";"Rachel's Experiment (SCIAT)";"1.0";"1";"1";"1";"1";"1";"1";"2015-03-09 13:46:41.157";"2015-03-09 13:58:10.881";"1";"0";"0";"1";"0";"161";"160";"module.IAT_practice1.exec-3770.IAT_Practice1";;;;;;;;;;;;;;;;;;;;;;;;;;;;;;;;;;;;;;;;;;;;;;;;;;;;;;;;;;;;;;;;;;;;;;;;;;;;;;;;"1703";"2015-03-09 13:55:07.862";"FINISHED";"PLEASANT";"success";"1138";"2015-03-09 13:55:06.146";"IAT_Ppractice.csv";"1";"great"
"2013_022";"1995";;"Windows 7";"Rachel's Experiment (SCIAT)";"1.0";"1";"1";"1";"1";"1";"1";"2015-03-09 13:46:41.157";"2015-03-09 13:58:10.881";"1";"0";"0";"1";"0";"162";"161";"module.IAT_practice1.exec-3770.IAT_Practice1";;;;;;;;;;;;;;;;;;;;;;;;;;;;;;;;;;;;;;;;;;;;;;;;;;;;;;;;;;;;;;;;;;;;;;;;;;;;;;;;"1704";"2015-03-09 13:55:09.593";"FINISHED";"PLEASANT";"success";"759";"2015-03-09 13:55:07.877";"IAT_Ppractice.csv";"1";"tasty"
"2013_022";"1995";;"Windows 7";"Rachel's Experiment (SCIAT)";"1.0";"1";"1";"1";"1";"1";"1";"2015-03-09 13:46:41.157";"2015-03-09 13:58:10.881";"1";"0";"0";"1";"0";"163";"162";"module.IAT_practice1.exec-3770.IAT_Practice1";;;;;;;;;;;;;;;;;;;;;;;;;;;;;;;;;;;;;;;;;;;;;;;;;;;;;;;;;;;;;;;;;;;;;;;;;;;;;;;;"1704";"2015-03-09 13:55:11.325";"FINISHED";"NEUTRAL";"success";"772";"2015-03-09 13:55:09.609";"IAT_Ppractice.csv";"2";"general"
"2013_022";"1995";;"Windows 7";"Rachel's Experiment (SCIAT)";"1.0";"1";"1";"1";"1";"1";"1";"2015-03-09 13:46:41.157";"2015-03-09 13:58:10.881";"1";"0";"0";"1";"0";"164";"163";"module.IAT_practice1.exec-3770.IAT_Practice1";;;;;;;;;;;;;;;;;;;;;;;;;;;;;;;;;;;;;;;;;;;;;;;;;;;;;;;;;;;;;;;;;;;;;;;;;;;;;;;;"1704";"2015-03-09 13:55:13.057";"FINISHED";"PLEASANT";"success";"568";"2015-03-09 13:55:11.341";"IAT_Ppractice.csv";"1";"delightful"
"2013_022";"1995";;"Windows 7";"Rachel's Experiment (SCIAT)";"1.0";"1";"1";"1";"1";"1";"1";"2015-03-09 13:46:41.157";"2015-03-09 13:58:10.881";"1";"0";"0";"1";"0";"165";"164";"module.IAT_practice1.exec-3770.IAT_Practice1";;;;;;;;;;;;;;;;;;;;;;;;;;;;;;;;;;;;;;;;;;;;;;;;;;;;;;;;;;;;;;;;;;;;;;;;;;;;;;;;"1709";"2015-03-09 13:55:14.819";"FINISHED";"NEUTRAL";"success";"779";"2015-03-09 13:55:13.103";"IAT_Ppractice.csv";"2";"ordinary"
"2013_022";"1995";;"Windows 7";"Rachel's Experiment (SCIAT)";"1.0";"1";"1";"1";"1";"1";"1";"2015-03-09 13:46:41.157";"2015-03-09 13:58:10.881";"1";"0";"0";"1";"0";"166";"165";"module.IAT_practice1.exec-3770.IAT_Practice1";;;;;;;;;;;;;;;;;;;;;;;;;;;;;;;;;;;;;;;;;;;;;;;;;;;;;;;;;;;;;;;;;;;;;;;;;;;;;;;;"1703";"2015-03-09 13:55:16.551";"FINISHED";"PLEASANT";"success";"777";"2015-03-09 13:55:14.835";"IAT_Ppractice.csv";"1";"heavenly"
"2013_022";"1995";;"Windows 7";"Rachel's Experiment (SCIAT)";"1.0";"1";"1";"1";"1";"1";"1";"2015-03-09 13:46:41.157";"2015-03-09 13:58:10.881";"1";"0";"0";"1";"0";"167";"166";"module.IAT_practice1.exec-3770.IAT_Practice1";;;;;;;;;;;;;;;;;;;;;;;;;;;;;;;;;;;;;;;;;;;;;;;;;;;;;;;;;;;;;;;;;;;;;;;;;;;;;;;;"1714";"2015-03-09 13:55:18.283";"FINISHED";"NEUTRAL";"success";"680";"2015-03-09 13:55:16.567";"IAT_Ppractice.csv";"2";"average"
"2013_022";"1995";;"Windows 7";"Rachel's Experiment (SCIAT)";"1.0";"1";"1";"1";"1";"1";"1";"2015-03-09 13:46:41.157";"2015-03-09 13:58:10.881";"1";"0";"0";"1";"0";"168";"167";"module.IAT_practice1.exec-3770.IAT_Practice1";;;;;;;;;;;;;;;;;;;;;;;;;;;;;;;;;;;;;;;;;;;;;;;;;;;;;;;;;;;;;;;;;;;;;;;;;;;;;;;;"1714";"2015-03-09 13:55:20.014";"FINISHED";"PLEASANT";"success";"556";"2015-03-09 13:55:18.298";"IAT_Ppractice.csv";"1";"delightful"
"2013_022";"1995";;"Windows 7";"Rachel's Experiment (SCIAT)";"1.0";"1";"1";"1";"1";"1";"1";"2015-03-09 13:46:41.157";"2015-03-09 13:58:10.881";"1";"0";"0";"1";"0";"169";"168";"module.IAT_practice1.exec-3770.IAT_Practice1";;;;;;;;;;;;;;;;;;;;;;;;;;;;;;;;;;;;;;;;;;;;;;;;;;;;;;;;;;;;;;;;;;;;;;;;;;;;;;;;"1703";"2015-03-09 13:55:21.746";"FINISHED";"PLEASANT";"success";"670";"2015-03-09 13:55:20.030";"IAT_Ppractice.csv";"1";"delicious"
"2013_022";"1995";;"Windows 7";"Rachel's Experiment (SCIAT)";"1.0";"1";"1";"1";"1";"1";"1";"2015-03-09 13:46:41.157";"2015-03-09 13:58:10.881";"1";"0";"0";"1";"0";"170";"169";"module.IAT_practice1.exec-3770.IAT_Practice1";;;;;;;;;;;;;;;;;;;;;;;;;;;;;;;;;;;;;;;;;;;;;;;;;;;;;;;;;;;;;;;;;;;;;;;;;;;;;;;;"1703";"2015-03-09 13:55:23.477";"FINISHED";"NEUTRAL";"success";"587";"2015-03-09 13:55:21.761";"IAT_Ppractice.csv";"2";"undefined"
"2013_022";"1995";;"Windows 7";"Rachel's Experiment (SCIAT)";"1.0";"1";"1";"1";"1";"1";"1";"2015-03-09 13:46:41.157";"2015-03-09 13:58:10.881";"1";"0";"0";"1";"0";"171";"170";"module.IAT_practice1.exec-3770.IAT_Practice1";;;;;;;;;;;;;;;;;;;;;;;;;;;;;;;;;;;;;;;;;;;;;;;;;;;;;;;;;;;;;;;;;;;;;;;;;;;;;;;;"1713";"2015-03-09 13:55:25.209";"FINISHED";"PLEASANT";"success";"769";"2015-03-09 13:55:23.493";"IAT_Ppractice.csv";"1";"heavenly"
"2013_022";"1995";;"Windows 7";"Rachel's Experiment (SCIAT)";"1.0";"1";"1";"1";"1";"1";"1";"2015-03-09 13:46:41.157";"2015-03-09 13:58:10.881";"1";"0";"0";"1";"0";"172";"171";"module.IAT_practice1.exec-3770.IAT_Practice1";;;;;;;;;;;;;;;;;;;;;;;;;;;;;;;;;;;;;;;;;;;;;;;;;;;;;;;;;;;;;;;;;;;;;;;;;;;;;;;;"1714";"2015-03-09 13:55:26.941";"FINISHED";"PLEASANT";"success";"862";"2015-03-09 13:55:25.225";"IAT_Ppractice.csv";"1";"delicious"
"2013_022";"1995";;"Windows 7";"Rachel's Experiment (SCIAT)";"1.0";"1";"1";"1";"1";"1";"1";"2015-03-09 13:46:41.157";"2015-03-09 13:58:10.881";"1";"0";"0";"1";"0";"173";"172";"module.IAT_practice1.exec-3770.IAT_Practice1";;;;;;;;;;;;;;;;;;;;;;;;;;;;;;;;;;;;;;;;;;;;;;;;;;;;;;;;;;;;;;;;;;;;;;;;;;;;;;;;"1703";"2015-03-09 13:55:28.672";"FINISHED";"PLEASANT";"success";"911";"2015-03-09 13:55:26.956";"IAT_Ppractice.csv";"1";"outstanding"
"2013_022";"1995";;"Windows 7";"Rachel's Experiment (SCIAT)";"1.0";"1";"1";"1";"1";"1";"1";"2015-03-09 13:46:41.157";"2015-03-09 13:58:10.881";"1";"0";"0";"1";"0";"174";"173";"module.IAT_practice1.exec-3770.IAT_Practice1";;;;;;;;;;;;;;;;;;;;;;;;;;;;;;;;;;;;;;;;;;;;;;;;;;;;;;;;;;;;;;;;;;;;;;;;;;;;;;;;"1822";"2015-03-09 13:55:30.529";"FINISHED";"PLEASANT";"failure";"614";"2015-03-09 13:55:28.703";"IAT_Ppractice.csv";"2";"ordinary"
"2013_022";"1995";;"Windows 7";"Rachel's Experiment (SCIAT)";"1.0";"1";"1";"1";"1";"1";"1";"2015-03-09 13:46:41.157";"2015-03-09 13:58:10.881";"1";"0";"0";"1";"0";"175";"174";"module.IAT_practice1.exec-3770.IAT_Practice1";;;;;;;;;;;;;;;;;;;;;;;;;;;;;;;;;;;;;;;;;;;;;;;;;;;;;;;;;;;;;;;;;;;;;;;;;;;;;;;;"1702";"2015-03-09 13:55:32.260";"FINISHED";"NEUTRAL";"success";"1042";"2015-03-09 13:55:30.544";"IAT_Ppractice.csv";"2";"adequate"
"2013_022";"1995";;"Windows 7";"Rachel's Experiment (SCIAT)";"1.0";"1";"1";"1";"1";"1";"1";"2015-03-09 13:46:41.157";"2015-03-09 13:58:10.881";"1";"0";"0";"1";"0";"176";"175";"module.IAT_practice1.exec-3770.IAT_Practice1";;;;;;;;;;;;;;;;;;;;;;;;;;;;;;;;;;;;;;;;;;;;;;;;;;;;;;;;;;;;;;;;;;;;;;;;;;;;;;;;"3024";"2015-03-09 13:55:35.302";"FINISHED";"NONE";"failure";"0";"2015-03-09 13:55:32.276";"IAT_Ppractice.csv";"2";"adequate"
"2013_022";"1995";;"Windows 7";"Rachel's Experiment (SCIAT)";"1.0";"1";"1";"1";"1";"1";"1";"2015-03-09 13:46:41.157";"2015-03-09 13:58:10.881";"1";"0";"0";"1";"0";"177";"176";"module.IAT_practice1.exec-3770.IAT_Practice1";;;;;;;;;;;;;;;;;;;;;;;;;;;;;;;;;;;;;;;;;;;;;;;;;;;;;;;;;;;;;;;;;;;;;;;;;;;;;;;;"1708";"2015-03-09 13:55:37.034";"FINISHED";"NEUTRAL";"success";"1235";"2015-03-09 13:55:35.318";"IAT_Ppractice.csv";"2";"general"
"2013_022";"1995";;"Windows 7";"Rachel's Experiment (SCIAT)";"1.0";"1";"1";"1";"1";"1";"1";"2015-03-09 13:46:41.157";"2015-03-09 13:58:10.881";"1";"0";"0";"1";"0";"178";"177";"module.IAT_practice1.exec-3770.IAT_Practice1";;;;;;;;;;;;;;;;;;;;;;;;;;;;;;;;;;;;;;;;;;;;;;;;;;;;;;;;;;;;;;;;;;;;;;;;;;;;;;;;"1700";"2015-03-09 13:55:38.765";"FINISHED";"PLEASANT";"success";"904";"2015-03-09 13:55:37.049";"IAT_Ppractice.csv";"1";"outstanding"
"2013_022";"1995";;"Windows 7";"Rachel's Experiment (SCIAT)";"1.0";"1";"1";"1";"1";"1";"1";"2015-03-09 13:46:41.157";"2015-03-09 13:58:10.881";"1";"0";"0";"1";"0";"179";"178";"module.IAT_practice1.exec-3770.IAT_Practice1";;;;;;;;;;;;;;;;;;;;;;;;;;;;;;;;;;;;;;;;;;;;;;;;;;;;;;;;;;;;;;;;;;;;;;;;;;;;;;;;"1705";"2015-03-09 13:55:40.497";"FINISHED";"NEUTRAL";"failure";"520";"2015-03-09 13:55:38.781";"IAT_Ppractice.csv";"1";"great"
"2013_022";"1995";;"Windows 7";"Rachel's Experiment (SCIAT)";"1.0";"1";"1";"1";"1";"1";"1";"2015-03-09 13:46:41.157";"2015-03-09 13:58:10.881";"1";"0";"0";"1";"0";"180";"179";"module.IAT_practice1.exec-3770.IAT_Practice1";;;;;;;;;;;;;;;;;;;;;;;;;;;;;;;;;;;;;;;;;;;;;;;;;;;;;;;;;;;;;;;;;;;;;;;;;;;;;;;;"1704";"2015-03-09 13:55:42.229";"FINISHED";"NEUTRAL";"success";"780";"2015-03-09 13:55:40.513";"IAT_Ppractice.csv";"2";"moderate"
"2013_022";"1995";;"Windows 7";"Rachel's Experiment (SCIAT)";"1.0";"1";"1";"1";"1";"1";"1";"2015-03-09 13:46:41.157";"2015-03-09 13:58:10.881";"1";"0";"0";"1";"0";"181";"180";"module.IAT_practice1.exec-3770.IAT_Practice1";;;;;;;;;;;;;;;;;;;;;;;;;;;;;;;;;;;;;;;;;;;;;;;;;;;;;;;;;;;;;;;;;;;;;;;;;;;;;;;;"1713";"2015-03-09 13:55:43.960";"FINISHED";"NEUTRAL";"success";"1026";"2015-03-09 13:55:42.244";"IAT_Ppractice.csv";"2";"moderate"
"2013_022";"1995";;"Windows 7";"Rachel's Experiment (SCIAT)";"1.0";"1";"1";"1";"1";"1";"1";"2015-03-09 13:46:41.157";"2015-03-09 13:58:10.881";"1";"0";"0";"1";"0";"182";"181";"module.IAT_practice1.exec-3770.IAT_Practice1";;;;;;;;;;;;;;;;;;;;;;;;;;;;;;;;;;;;;;;;;;;;;;;;;;;;;;;;;;;;;;;;;;;;;;;;;;;;;;;;"1704";"2015-03-09 13:55:45.692";"FINISHED";"PLEASANT";"success";"621";"2015-03-09 13:55:43.976";"IAT_Ppractice.csv";"1";"tasty"
"2013_022";"1995";;"Windows 7";"Rachel's Experiment (SCIAT)";"1.0";"1";"1";"1";"1";"1";"1";"2015-03-09 13:46:41.157";"2015-03-09 13:58:10.881";"1";"0";"0";"1";"0";"183";"182";"module.IAT_practice1.exec-3770.IAT_Practice1";;;;;;;;;;;;;;;;;;;;;;;;;;;;;;;;;;;;;;;;;;;;;;;;;;;;;;;;;;;;;;;;;;;;;;;;;;;;;;;;"1704";"2015-03-09 13:55:47.423";"FINISHED";"NEUTRAL";"success";"537";"2015-03-09 13:55:45.707";"IAT_Ppractice.csv";"2";"undefined"
"2013_022";"1995";;"Windows 7";"Rachel's Experiment (SCIAT)";"1.0";"1";"1";"1";"1";"1";"1";"2015-03-09 13:46:41.157";"2015-03-09 13:58:10.881";"1";"0";"0";"1";"0";"184";"183";"module.IAT_Block1.exec-1754.IAT_block1";;;;;;;;;;;;;;;;;;;;;;;;;;;;;;;;;;;;;;;;;;;;;;;;;;;;;;;;;;;;;;;;;;;;;;"1707";"2015-03-09 13:56:01.074";"FINISHED";"PLEASANT";"success";"610";"2015-03-09 13:55:59.357";"IAT_PP.csv";"1";"A0";;;;;;;;;;
"2013_022";"1995";;"Windows 7";"Rachel's Experiment (SCIAT)";"1.0";"1";"1";"1";"1";"1";"1";"2015-03-09 13:46:41.157";"2015-03-09 13:58:10.881";"1";"0";"0";"1";"0";"185";"184";"module.IAT_Block1.exec-1754.IAT_block1";;;;;;;;;;;;;;;;;;;;;;;;;;;;;;;;;;;;;;;;;;;;;;;;;;;;;;;;;;;;;;;;;;;;;;"1712";"2015-03-09 13:56:02.805";"FINISHED";"NEUTRAL";"success";"756";"2015-03-09 13:56:01.089";"IAT_PP.csv";"2";"moderate";;;;;;;;;;
"2013_022";"1995";;"Windows 7";"Rachel's Experiment (SCIAT)";"1.0";"1";"1";"1";"1";"1";"1";"2015-03-09 13:46:41.157";"2015-03-09 13:58:10.881";"1";"0";"0";"1";"0";"186";"185";"module.IAT_Block1.exec-1754.IAT_block1";;;;;;;;;;;;;;;;;;;;;;;;;;;;;;;;;;;;;;;;;;;;;;;;;;;;;;;;;;;;;;;;;;;;;;"1714";"2015-03-09 13:56:04.537";"FINISHED";"NEUTRAL";"success";"625";"2015-03-09 13:56:02.821";"IAT_PP.csv";"2";"general";;;;;;;;;;
"2013_022";"1995";;"Windows 7";"Rachel's Experiment (SCIAT)";"1.0";"1";"1";"1";"1";"1";"1";"2015-03-09 13:46:41.157";"2015-03-09 13:58:10.881";"1";"0";"0";"1";"0";"187";"186";"module.IAT_Block1.exec-1754.IAT_block1";;;;;;;;;;;;;;;;;;;;;;;;;;;;;;;;;;;;;;;;;;;;;;;;;;;;;;;;;;;;;;;;;;;;;;"1714";"2015-03-09 13:56:06.268";"FINISHED";"PLEASANT";"success";"462";"2015-03-09 13:56:04.552";"IAT_PP.csv";"1";"A0";;;;;;;;;;
"2013_022";"1995";;"Windows 7";"Rachel's Experiment (SCIAT)";"1.0";"1";"1";"1";"1";"1";"1";"2015-03-09 13:46:41.157";"2015-03-09 13:58:10.881";"1";"0";"0";"1";"0";"188";"187";"module.IAT_Block1.exec-1754.IAT_block1";;;;;;;;;;;;;;;;;;;;;;;;;;;;;;;;;;;;;;;;;;;;;;;;;;;;;;;;;;;;;;;;;;;;;;"1704";"2015-03-09 13:56:08.000";"FINISHED";"PLEASANT";"success";"600";"2015-03-09 13:56:06.284";"IAT_PP.csv";"1";"delicious";;;;;;;;;;
"2013_022";"1995";;"Windows 7";"Rachel's Experiment (SCIAT)";"1.0";"1";"1";"1";"1";"1";"1";"2015-03-09 13:46:41.157";"2015-03-09 13:58:10.881";"1";"0";"0";"1";"0";"189";"188";"module.IAT_Block1.exec-1754.IAT_block1";;;;;;;;;;;;;;;;;;;;;;;;;;;;;;;;;;;;;;;;;;;;;;;;;;;;;;;;;;;;;;;;;;;;;;"1714";"2015-03-09 13:56:09.732";"FINISHED";"PLEASANT";"success";"495";"2015-03-09 13:56:08.016";"IAT_PP.csv";"1";"A0";;;;;;;;;;
"2013_022";"1995";;"Windows 7";"Rachel's Experiment (SCIAT)";"1.0";"1";"1";"1";"1";"1";"1";"2015-03-09 13:46:41.157";"2015-03-09 13:58:10.881";"1";"0";"0";"1";"0";"190";"189";"module.IAT_Block1.exec-1754.IAT_block1";;;;;;;;;;;;;;;;;;;;;;;;;;;;;;;;;;;;;;;;;;;;;;;;;;;;;;;;;;;;;;;;;;;;;;"1707";"2015-03-09 13:56:11.463";"FINISHED";"PLEASANT";"success";"653";"2015-03-09 13:56:09.747";"IAT_PP.csv";"1";"A1";;;;;;;;;;
"2013_022";"1995";;"Windows 7";"Rachel's Experiment (SCIAT)";"1.0";"1";"1";"1";"1";"1";"1";"2015-03-09 13:46:41.157";"2015-03-09 13:58:10.881";"1";"0";"0";"1";"0";"191";"190";"module.IAT_Block1.exec-1754.IAT_block1";;;;;;;;;;;;;;;;;;;;;;;;;;;;;;;;;;;;;;;;;;;;;;;;;;;;;;;;;;;;;;;;;;;;;;"1707";"2015-03-09 13:56:13.195";"FINISHED";"PLEASANT";"success";"505";"2015-03-09 13:56:11.479";"IAT_PP.csv";"1";"A2";;;;;;;;;;
"2013_022";"1995";;"Windows 7";"Rachel's Experiment (SCIAT)";"1.0";"1";"1";"1";"1";"1";"1";"2015-03-09 13:46:41.157";"2015-03-09 13:58:10.881";"1";"0";"0";"1";"0";"192";"191";"module.IAT_Block1.exec-1754.IAT_block1";;;;;;;;;;;;;;;;;;;;;;;;;;;;;;;;;;;;;;;;;;;;;;;;;;;;;;;;;;;;;;;;;;;;;;"1714";"2015-03-09 13:56:14.926";"FINISHED";"NEUTRAL";"success";"747";"2015-03-09 13:56:13.210";"IAT_PP.csv";"2";"general";;;;;;;;;;
"2013_022";"1995";;"Windows 7";"Rachel's Experiment (SCIAT)";"1.0";"1";"1";"1";"1";"1";"1";"2015-03-09 13:46:41.157";"2015-03-09 13:58:10.881";"1";"0";"0";"1";"0";"193";"192";"module.IAT_Block1.exec-1754.IAT_block1";;;;;;;;;;;;;;;;;;;;;;;;;;;;;;;;;;;;;;;;;;;;;;;;;;;;;;;;;;;;;;;;;;;;;;"1708";"2015-03-09 13:56:16.658";"FINISHED";"PLEASANT";"success";"594";"2015-03-09 13:56:14.942";"IAT_PP.csv";"1";"A4";;;;;;;;;;
"2013_022";"1995";;"Windows 7";"Rachel's Experiment (SCIAT)";"1.0";"1";"1";"1";"1";"1";"1";"2015-03-09 13:46:41.157";"2015-03-09 13:58:10.881";"1";"0";"0";"1";"0";"194";"193";"module.IAT_Block1.exec-1754.IAT_block1";;;;;;;;;;;;;;;;;;;;;;;;;;;;;;;;;;;;;;;;;;;;;;;;;;;;;;;;;;;;;;;;;;;;;;"1714";"2015-03-09 13:56:18.390";"FINISHED";"NEUTRAL";"success";"549";"2015-03-09 13:56:16.674";"IAT_PP.csv";"2";"moderate";;;;;;;;;;
"2013_022";"1995";;"Windows 7";"Rachel's Experiment (SCIAT)";"1.0";"1";"1";"1";"1";"1";"1";"2015-03-09 13:46:41.157";"2015-03-09 13:58:10.881";"1";"0";"0";"1";"0";"195";"194";"module.IAT_Block1.exec-1754.IAT_block1";;;;;;;;;;;;;;;;;;;;;;;;;;;;;;;;;;;;;;;;;;;;;;;;;;;;;;;;;;;;;;;;;;;;;;"1702";"2015-03-09 13:56:20.137";"FINISHED";"NEUTRAL";"success";"685";"2015-03-09 13:56:18.421";"IAT_PP.csv";"2";"average";;;;;;;;;;
"2013_022";"1995";;"Windows 7";"Rachel's Experiment (SCIAT)";"1.0";"1";"1";"1";"1";"1";"1";"2015-03-09 13:46:41.157";"2015-03-09 13:58:10.881";"1";"0";"0";"1";"0";"196";"195";"module.IAT_Block1.exec-1754.IAT_block1";;;;;;;;;;;;;;;;;;;;;;;;;;;;;;;;;;;;;;;;;;;;;;;;;;;;;;;;;;;;;;;;;;;;;;"1707";"2015-03-09 13:56:21.868";"FINISHED";"PLEASANT";"success";"543";"2015-03-09 13:56:20.152";"IAT_PP.csv";"1";"A5";;;;;;;;;;
"2013_022";"1995";;"Windows 7";"Rachel's Experiment (SCIAT)";"1.0";"1";"1";"1";"1";"1";"1";"2015-03-09 13:46:41.157";"2015-03-09 13:58:10.881";"1";"0";"0";"1";"0";"197";"196";"module.IAT_Block1.exec-1754.IAT_block1";;;;;;;;;;;;;;;;;;;;;;;;;;;;;;;;;;;;;;;;;;;;;;;;;;;;;;;;;;;;;;;;;;;;;;"1714";"2015-03-09 13:56:23.600";"FINISHED";"NEUTRAL";"success";"690";"2015-03-09 13:56:21.884";"IAT_PP.csv";"2";"undefined";;;;;;;;;;
"2013_022";"1995";;"Windows 7";"Rachel's Experiment (SCIAT)";"1.0";"1";"1";"1";"1";"1";"1";"2015-03-09 13:46:41.157";"2015-03-09 13:58:10.881";"1";"0";"0";"1";"0";"198";"197";"module.IAT_Block1.exec-1754.IAT_block1";;;;;;;;;;;;;;;;;;;;;;;;;;;;;;;;;;;;;;;;;;;;;;;;;;;;;;;;;;;;;;;;;;;;;;"1709";"2015-03-09 13:56:25.332";"FINISHED";"NEUTRAL";"success";"922";"2015-03-09 13:56:23.616";"IAT_PP.csv";"2";"ordinary";;;;;;;;;;
"2013_022";"1995";;"Windows 7";"Rachel's Experiment (SCIAT)";"1.0";"1";"1";"1";"1";"1";"1";"2015-03-09 13:46:41.157";"2015-03-09 13:58:10.881";"1";"0";"0";"1";"0";"199";"198";"module.IAT_Block1.exec-1754.IAT_block1";;;;;;;;;;;;;;;;;;;;;;;;;;;;;;;;;;;;;;;;;;;;;;;;;;;;;;;;;;;;;;;;;;;;;;"1714";"2015-03-09 13:56:27.063";"FINISHED";"NEUTRAL";"success";"547";"2015-03-09 13:56:25.347";"IAT_PP.csv";"2";"undefined";;;;;;;;;;
"2013_022";"1995";;"Windows 7";"Rachel's Experiment (SCIAT)";"1.0";"1";"1";"1";"1";"1";"1";"2015-03-09 13:46:41.157";"2015-03-09 13:58:10.881";"1";"0";"0";"1";"0";"200";"199";"module.IAT_Block1.exec-1754.IAT_block1";;;;;;;;;;;;;;;;;;;;;;;;;;;;;;;;;;;;;;;;;;;;;;;;;;;;;;;;;;;;;;;;;;;;;;"1704";"2015-03-09 13:56:28.795";"FINISHED";"PLEASANT";"success";"733";"2015-03-09 13:56:27.079";"IAT_PP.csv";"1";"heavenly";;;;;;;;;;
"2013_022";"1995";;"Windows 7";"Rachel's Experiment (SCIAT)";"1.0";"1";"1";"1";"1";"1";"1";"2015-03-09 13:46:41.157";"2015-03-09 13:58:10.881";"1";"0";"0";"1";"0";"201";"200";"module.IAT_Block1.exec-1754.IAT_block1";;;;;;;;;;;;;;;;;;;;;;;;;;;;;;;;;;;;;;;;;;;;;;;;;;;;;;;;;;;;;;;;;;;;;;"1714";"2015-03-09 13:56:30.526";"FINISHED";"PLEASANT";"success";"436";"2015-03-09 13:56:28.810";"IAT_PP.csv";"1";"A4";;;;;;;;;;
"2013_022";"1995";;"Windows 7";"Rachel's Experiment (SCIAT)";"1.0";"1";"1";"1";"1";"1";"1";"2015-03-09 13:46:41.157";"2015-03-09 13:58:10.881";"1";"0";"0";"1";"0";"202";"201";"module.IAT_Block1.exec-1754.IAT_block1";;;;;;;;;;;;;;;;;;;;;;;;;;;;;;;;;;;;;;;;;;;;;;;;;;;;;;;;;;;;;;;;;;;;;;"1714";"2015-03-09 13:56:32.258";"FINISHED";"PLEASANT";"success";"424";"2015-03-09 13:56:30.542";"IAT_PP.csv";"1";"A1";;;;;;;;;;
"2013_022";"1995";;"Windows 7";"Rachel's Experiment (SCIAT)";"1.0";"1";"1";"1";"1";"1";"1";"2015-03-09 13:46:41.157";"2015-03-09 13:58:10.881";"1";"0";"0";"1";"0";"203";"202";"module.IAT_Block1.exec-1754.IAT_block1";;;;;;;;;;;;;;;;;;;;;;;;;;;;;;;;;;;;;;;;;;;;;;;;;;;;;;;;;;;;;;;;;;;;;;"1714";"2015-03-09 13:56:33.990";"FINISHED";"PLEASANT";"success";"588";"2015-03-09 13:56:32.274";"IAT_PP.csv";"1";"A5";;;;;;;;;;
"2013_022";"1995";;"Windows 7";"Rachel's Experiment (SCIAT)";"1.0";"1";"1";"1";"1";"1";"1";"2015-03-09 13:46:41.157";"2015-03-09 13:58:10.881";"1";"0";"0";"1";"0";"204";"203";"module.IAT_Block1.exec-1754.IAT_block1";;;;;;;;;;;;;;;;;;;;;;;;;;;;;;;;;;;;;;;;;;;;;;;;;;;;;;;;;;;;;;;;;;;;;;"1713";"2015-03-09 13:56:35.737";"FINISHED";"NEUTRAL";"success";"536";"2015-03-09 13:56:34.021";"IAT_PP.csv";"2";"moderate";;;;;;;;;;
"2013_022";"1995";;"Windows 7";"Rachel's Experiment (SCIAT)";"1.0";"1";"1";"1";"1";"1";"1";"2015-03-09 13:46:41.157";"2015-03-09 13:58:10.881";"1";"0";"0";"1";"0";"205";"204";"module.IAT_Block1.exec-1754.IAT_block1";;;;;;;;;;;;;;;;;;;;;;;;;;;;;;;;;;;;;;;;;;;;;;;;;;;;;;;;;;;;;;;;;;;;;;"1714";"2015-03-09 13:56:37.468";"FINISHED";"NEUTRAL";"success";"526";"2015-03-09 13:56:35.752";"IAT_PP.csv";"2";"adequate";;;;;;;;;;
"2013_022";"1995";;"Windows 7";"Rachel's Experiment (SCIAT)";"1.0";"1";"1";"1";"1";"1";"1";"2015-03-09 13:46:41.157";"2015-03-09 13:58:10.881";"1";"0";"0";"1";"0";"206";"205";"module.IAT_Block1.exec-1754.IAT_block1";;;;;;;;;;;;;;;;;;;;;;;;;;;;;;;;;;;;;;;;;;;;;;;;;;;;;;;;;;;;;;;;;;;;;;"1714";"2015-03-09 13:56:39.200";"FINISHED";"NEUTRAL";"failure";"218";"2015-03-09 13:56:37.484";"IAT_PP.csv";"1";"A1";;;;;;;;;;
"2013_022";"1995";;"Windows 7";"Rachel's Experiment (SCIAT)";"1.0";"1";"1";"1";"1";"1";"1";"2015-03-09 13:46:41.157";"2015-03-09 13:58:10.881";"1";"0";"0";"1";"0";"207";"206";"module.IAT_Block1.exec-1754.IAT_block1";;;;;;;;;;;;;;;;;;;;;;;;;;;;;;;;;;;;;;;;;;;;;;;;;;;;;;;;;;;;;;;;;;;;;;"1714";"2015-03-09 13:56:40.932";"FINISHED";"PLEASANT";"success";"1071";"2015-03-09 13:56:39.216";"IAT_PP.csv";"1";"tasty";;;;;;;;;;
"2013_022";"1995";;"Windows 7";"Rachel's Experiment (SCIAT)";"1.0";"1";"1";"1";"1";"1";"1";"2015-03-09 13:46:41.157";"2015-03-09 13:58:10.881";"1";"0";"0";"1";"0";"208";"207";"module.IAT_Block1.exec-1754.IAT_block1";;;;;;;;;;;;;;;;;;;;;;;;;;;;;;;;;;;;;;;;;;;;;;;;;;;;;;;;;;;;;;;;;;;;;;"1713";"2015-03-09 13:56:42.663";"FINISHED";"PLEASANT";"success";"1138";"2015-03-09 13:56:40.947";"IAT_PP.csv";"1";"outstanding";;;;;;;;;;
"2013_022";"1995";;"Windows 7";"Rachel's Experiment (SCIAT)";"1.0";"1";"1";"1";"1";"1";"1";"2015-03-09 13:46:41.157";"2015-03-09 13:58:10.881";"1";"0";"0";"1";"0";"209";"208";"module.IAT_Block1.exec-1754.IAT_block1";;;;;;;;;;;;;;;;;;;;;;;;;;;;;;;;;;;;;;;;;;;;;;;;;;;;;;;;;;;;;;;;;;;;;;"1714";"2015-03-09 13:56:44.395";"FINISHED";"NEUTRAL";"success";"935";"2015-03-09 13:56:42.679";"IAT_PP.csv";"2";"adequate";;;;;;;;;;
"2013_022";"1995";;"Windows 7";"Rachel's Experiment (SCIAT)";"1.0";"1";"1";"1";"1";"1";"1";"2015-03-09 13:46:41.157";"2015-03-09 13:58:10.881";"1";"0";"0";"1";"0";"210";"209";"module.IAT_Block1.exec-1754.IAT_block1";;;;;;;;;;;;;;;;;;;;;;;;;;;;;;;;;;;;;;;;;;;;;;;;;;;;;;;;;;;;;;;;;;;;;;"1714";"2015-03-09 13:56:46.126";"FINISHED";"NEUTRAL";"success";"748";"2015-03-09 13:56:44.410";"IAT_PP.csv";"2";"adequate";;;;;;;;;;
"2013_022";"1995";;"Windows 7";"Rachel's Experiment (SCIAT)";"1.0";"1";"1";"1";"1";"1";"1";"2015-03-09 13:46:41.157";"2015-03-09 13:58:10.881";"1";"0";"0";"1";"0";"211";"210";"module.IAT_Block1.exec-1754.IAT_block1";;;;;;;;;;;;;;;;;;;;;;;;;;;;;;;;;;;;;;;;;;;;;;;;;;;;;;;;;;;;;;;;;;;;;;"1714";"2015-03-09 13:56:47.858";"FINISHED";"NEUTRAL";"success";"736";"2015-03-09 13:56:46.142";"IAT_PP.csv";"2";"average";;;;;;;;;;
"2013_022";"1995";;"Windows 7";"Rachel's Experiment (SCIAT)";"1.0";"1";"1";"1";"1";"1";"1";"2015-03-09 13:46:41.157";"2015-03-09 13:58:10.881";"1";"0";"0";"1";"0";"212";"211";"module.IAT_Block1.exec-1754.IAT_block1";;;;;;;;;;;;;;;;;;;;;;;;;;;;;;;;;;;;;;;;;;;;;;;;;;;;;;;;;;;;;;;;;;;;;;"1713";"2015-03-09 13:56:49.590";"FINISHED";"NEUTRAL";"success";"1076";"2015-03-09 13:56:47.874";"IAT_PP.csv";"2";"undefined";;;;;;;;;;
"2013_022";"1995";;"Windows 7";"Rachel's Experiment (SCIAT)";"1.0";"1";"1";"1";"1";"1";"1";"2015-03-09 13:46:41.157";"2015-03-09 13:58:10.881";"1";"0";"0";"1";"0";"213";"212";"module.IAT_Block1.exec-1754.IAT_block1";;;;;;;;;;;;;;;;;;;;;;;;;;;;;;;;;;;;;;;;;;;;;;;;;;;;;;;;;;;;;;;;;;;;;;"1713";"2015-03-09 13:56:51.337";"FINISHED";"NEUTRAL";"success";"1016";"2015-03-09 13:56:49.621";"IAT_PP.csv";"2";"general";;;;;;;;;;
"2013_022";"1995";;"Windows 7";"Rachel's Experiment (SCIAT)";"1.0";"1";"1";"1";"1";"1";"1";"2015-03-09 13:46:41.157";"2015-03-09 13:58:10.881";"1";"0";"0";"1";"0";"214";"213";"module.IAT_Block1.exec-1754.IAT_block1";;;;;;;;;;;;;;;;;;;;;;;;;;;;;;;;;;;;;;;;;;;;;;;;;;;;;;;;;;;;;;;;;;;;;;"1714";"2015-03-09 13:56:53.068";"FINISHED";"PLEASANT";"success";"534";"2015-03-09 13:56:51.352";"IAT_PP.csv";"1";"A1";;;;;;;;;;
"2013_022";"1995";;"Windows 7";"Rachel's Experiment (SCIAT)";"1.0";"1";"1";"1";"1";"1";"1";"2015-03-09 13:46:41.157";"2015-03-09 13:58:10.881";"1";"0";"0";"1";"0";"215";"214";"module.IAT_Block1.exec-1754.IAT_block1";;;;;;;;;;;;;;;;;;;;;;;;;;;;;;;;;;;;;;;;;;;;;;;;;;;;;;;;;;;;;;;;;;;;;;"1714";"2015-03-09 13:56:54.800";"FINISHED";"NEUTRAL";"failure";"554";"2015-03-09 13:56:53.084";"IAT_PP.csv";"1";"outstanding";;;;;;;;;;
"2013_022";"1995";;"Windows 7";"Rachel's Experiment (SCIAT)";"1.0";"1";"1";"1";"1";"1";"1";"2015-03-09 13:46:41.157";"2015-03-09 13:58:10.881";"1";"0";"0";"1";"0";"216";"215";"module.IAT_Block1.exec-1754.IAT_block1";;;;;;;;;;;;;;;;;;;;;;;;;;;;;;;;;;;;;;;;;;;;;;;;;;;;;;;;;;;;;;;;;;;;;;"1714";"2015-03-09 13:56:56.532";"FINISHED";"NEUTRAL";"success";"679";"2015-03-09 13:56:54.816";"IAT_PP.csv";"2";"undefined";;;;;;;;;;
"2013_022";"1995";;"Windows 7";"Rachel's Experiment (SCIAT)";"1.0";"1";"1";"1";"1";"1";"1";"2015-03-09 13:46:41.157";"2015-03-09 13:58:10.881";"1";"0";"0";"1";"0";"217";"216";"module.IAT_Block1.exec-1754.IAT_block1";;;;;;;;;;;;;;;;;;;;;;;;;;;;;;;;;;;;;;;;;;;;;;;;;;;;;;;;;;;;;;;;;;;;;;"1714";"2015-03-09 13:56:58.263";"FINISHED";"PLEASANT";"success";"691";"2015-03-09 13:56:56.547";"IAT_PP.csv";"1";"great";;;;;;;;;;
"2013_022";"1995";;"Windows 7";"Rachel's Experiment (SCIAT)";"1.0";"1";"1";"1";"1";"1";"1";"2015-03-09 13:46:41.157";"2015-03-09 13:58:10.881";"1";"0";"0";"1";"0";"218";"217";"module.IAT_Block1.exec-1754.IAT_block1";;;;;;;;;;;;;;;;;;;;;;;;;;;;;;;;;;;;;;;;;;;;;;;;;;;;;;;;;;;;;;;;;;;;;;"1714";"2015-03-09 13:56:59.995";"FINISHED";"PLEASANT";"success";"623";"2015-03-09 13:56:58.279";"IAT_PP.csv";"1";"A1";;;;;;;;;;
"2013_022";"1995";;"Windows 7";"Rachel's Experiment (SCIAT)";"1.0";"1";"1";"1";"1";"1";"1";"2015-03-09 13:46:41.157";"2015-03-09 13:58:10.881";"1";"0";"0";"1";"0";"219";"218";"module.IAT_Block1.exec-1754.IAT_block1";;;;;;;;;;;;;;;;;;;;;;;;;;;;;;;;;;;;;;;;;;;;;;;;;;;;;;;;;;;;;;;;;;;;;;"1714";"2015-03-09 13:57:01.726";"FINISHED";"NEUTRAL";"success";"539";"2015-03-09 13:57:00.010";"IAT_PP.csv";"2";"moderate";;;;;;;;;;
"2013_022";"1995";;"Windows 7";"Rachel's Experiment (SCIAT)";"1.0";"1";"1";"1";"1";"1";"1";"2015-03-09 13:46:41.157";"2015-03-09 13:58:10.881";"1";"0";"0";"1";"0";"220";"219";"module.IAT_Block1.exec-1754.IAT_block1";;;;;;;;;;;;;;;;;;;;;;;;;;;;;;;;;;;;;;;;;;;;;;;;;;;;;;;;;;;;;;;;;;;;;;"1715";"2015-03-09 13:57:03.567";"FINISHED";"PLEASANT";"success";"691";"2015-03-09 13:57:01.851";"IAT_PP.csv";"1";"delightful";;;;;;;;;;
"2013_022";"1995";;"Windows 7";"Rachel's Experiment (SCIAT)";"1.0";"1";"1";"1";"1";"1";"1";"2015-03-09 13:46:41.157";"2015-03-09 13:58:10.881";"1";"0";"0";"1";"0";"221";"220";"module.IAT_Block1.exec-1754.IAT_block1";;;;;;;;;;;;;;;;;;;;;;;;;;;;;;;;;;;;;;;;;;;;;;;;;;;;;;;;;;;;;;;;;;;;;;"1712";"2015-03-09 13:57:05.299";"FINISHED";"PLEASANT";"success";"741";"2015-03-09 13:57:03.583";"IAT_PP.csv";"1";"delightful";;;;;;;;;;
"2013_022";"1995";;"Windows 7";"Rachel's Experiment (SCIAT)";"1.0";"1";"1";"1";"1";"1";"1";"2015-03-09 13:46:41.157";"2015-03-09 13:58:10.881";"1";"0";"0";"1";"0";"222";"221";"module.IAT_Block1.exec-1754.IAT_block1";;;;;;;;;;;;;;;;;;;;;;;;;;;;;;;;;;;;;;;;;;;;;;;;;;;;;;;;;;;;;;;;;;;;;;"1707";"2015-03-09 13:57:07.030";"FINISHED";"PLEASANT";"success";"669";"2015-03-09 13:57:05.314";"IAT_PP.csv";"1";"A5";;;;;;;;;;
"2013_022";"1995";;"Windows 7";"Rachel's Experiment (SCIAT)";"1.0";"1";"1";"1";"1";"1";"1";"2015-03-09 13:46:41.157";"2015-03-09 13:58:10.881";"1";"0";"0";"1";"0";"223";"222";"module.IAT_Block1.exec-1754.IAT_block1";;;;;;;;;;;;;;;;;;;;;;;;;;;;;;;;;;;;;;;;;;;;;;;;;;;;;;;;;;;;;;;;;;;;;;"1708";"2015-03-09 13:57:08.762";"FINISHED";"PLEASANT";"success";"570";"2015-03-09 13:57:07.046";"IAT_PP.csv";"1";"A2";;;;;;;;;;
"2013_022";"1995";;"Windows 7";"Rachel's Experiment (SCIAT)";"1.0";"1";"1";"1";"1";"1";"1";"2015-03-09 13:46:41.157";"2015-03-09 13:58:10.881";"1";"0";"0";"1";"0";"224";"223";"module.IAT_Block1.exec-1754.IAT_block1";;;;;;;;;;;;;;;;;;;;;;;;;;;;;;;;;;;;;;;;;;;;;;;;;;;;;;;;;;;;;;;;;;;;;;"1714";"2015-03-09 13:57:10.494";"FINISHED";"PLEASANT";"success";"596";"2015-03-09 13:57:08.778";"IAT_PP.csv";"1";"A5";;;;;;;;;;
"2013_022";"1995";;"Windows 7";"Rachel's Experiment (SCIAT)";"1.0";"1";"1";"1";"1";"1";"1";"2015-03-09 13:46:41.157";"2015-03-09 13:58:10.881";"1";"0";"0";"1";"0";"225";"224";"module.IAT_Block1.exec-1754.IAT_block1";;;;;;;;;;;;;;;;;;;;;;;;;;;;;;;;;;;;;;;;;;;;;;;;;;;;;;;;;;;;;;;;;;;;;;"1704";"2015-03-09 13:57:12.225";"FINISHED";"NEUTRAL";"success";"567";"2015-03-09 13:57:10.509";"IAT_PP.csv";"2";"undefined";;;;;;;;;;
"2013_022";"1995";;"Windows 7";"Rachel's Experiment (SCIAT)";"1.0";"1";"1";"1";"1";"1";"1";"2015-03-09 13:46:41.157";"2015-03-09 13:58:10.881";"1";"0";"0";"1";"0";"226";"225";"module.IAT_Block1.exec-1754.IAT_block1";;;;;;;;;;;;;;;;;;;;;;;;;;;;;;;;;;;;;;;;;;;;;;;;;;;;;;;;;;;;;;;;;;;;;;"1704";"2015-03-09 13:57:13.957";"FINISHED";"NEUTRAL";"success";"747";"2015-03-09 13:57:12.241";"IAT_PP.csv";"2";"average";;;;;;;;;;
"2013_022";"1995";;"Windows 7";"Rachel's Experiment (SCIAT)";"1.0";"1";"1";"1";"1";"1";"1";"2015-03-09 13:46:41.157";"2015-03-09 13:58:10.881";"1";"0";"0";"1";"0";"227";"226";"module.IAT_Block1.exec-1754.IAT_block1";;;;;;;;;;;;;;;;;;;;;;;;;;;;;;;;;;;;;;;;;;;;;;;;;;;;;;;;;;;;;;;;;;;;;;"1703";"2015-03-09 13:57:15.688";"FINISHED";"NEUTRAL";"success";"871";"2015-03-09 13:57:13.972";"IAT_PP.csv";"2";"adequate";;;;;;;;;;
"2013_022";"1995";;"Windows 7";"Rachel's Experiment (SCIAT)";"1.0";"1";"1";"1";"1";"1";"1";"2015-03-09 13:46:41.157";"2015-03-09 13:58:10.881";"1";"0";"0";"1";"0";"228";"227";"module.IAT_Block1.exec-1754.IAT_block1";;;;;;;;;;;;;;;;;;;;;;;;;;;;;;;;;;;;;;;;;;;;;;;;;;;;;;;;;;;;;;;;;;;;;;"1703";"2015-03-09 13:57:17.436";"FINISHED";"NEUTRAL";"success";"891";"2015-03-09 13:57:15.720";"IAT_PP.csv";"2";"moderate";;;;;;;;;;
"2013_022";"1995";;"Windows 7";"Rachel's Experiment (SCIAT)";"1.0";"1";"1";"1";"1";"1";"1";"2015-03-09 13:46:41.157";"2015-03-09 13:58:10.881";"1";"0";"0";"1";"0";"229";"228";"module.IAT_Block1.exec-1754.IAT_block1";;;;;;;;;;;;;;;;;;;;;;;;;;;;;;;;;;;;;;;;;;;;;;;;;;;;;;;;;;;;;;;;;;;;;;"1714";"2015-03-09 13:57:19.167";"FINISHED";"PLEASANT";"success";"563";"2015-03-09 13:57:17.451";"IAT_PP.csv";"1";"A2";;;;;;;;;;
"2013_022";"1995";;"Windows 7";"Rachel's Experiment (SCIAT)";"1.0";"1";"1";"1";"1";"1";"1";"2015-03-09 13:46:41.157";"2015-03-09 13:58:10.881";"1";"0";"0";"1";"0";"230";"229";"module.IAT_Block1.exec-1754.IAT_block1";;;;;;;;;;;;;;;;;;;;;;;;;;;;;;;;;;;;;;;;;;;;;;;;;;;;;;;;;;;;;;;;;;;;;;"1701";"2015-03-09 13:57:20.899";"FINISHED";"PLEASANT";"success";"578";"2015-03-09 13:57:19.183";"IAT_PP.csv";"1";"great";;;;;;;;;;
