"user.name";"user.yearOfBirth";"user.sex";"user.osName";"module.name";"module.version";"module.online.subject.code";"module.online.study.id";"module.online.module.nr";"module.online.group.nr";"session.id";"session.index";"session.startTime";"session.endTime";"session.completed";"session.node-5431.conditionType";"session.node-9724.blockOrder";"session.node-9724.IATorder";"session.node-9724.keyOrder";"trial.id";"trial.index";"trial.name";"trial.GoNoGo1.durationTime";"trial.GoNoGo1.endTime";"trial.GoNoGo1.icon";"trial.GoNoGo1.location";"trial.GoNoGo1.outcome";"trial.GoNoGo1.response";"trial.GoNoGo1.result";"trial.GoNoGo1.RT";"trial.GoNoGo1.signal";"trial.GoNoGo1.startTime";"trial.GoNoGo1.stimulus type";"trial.GoNoGo2.durationTime";"trial.GoNoGo2.endTime";"trial.GoNoGo2.icon";"trial.GoNoGo2.location";"trial.GoNoGo2.outcome";"trial.GoNoGo2.response";"trial.GoNoGo2.result";"trial.GoNoGo2.RT";"trial.GoNoGo2.signal";"trial.GoNoGo2.startTime";"trial.GoNoGo2.stimulus type";"trial.GoNoGo_Practice.durationTime";"trial.GoNoGo_Practice.endTime";"trial.GoNoGo_Practice.icon";"trial.GoNoGo_Practice.location";"trial.GoNoGo_Practice.outcome";"trial.GoNoGo_Practice.response";"trial.GoNoGo_Practice.result";"trial.GoNoGo_Practice.RT";"trial.GoNoGo_Practice.signal";"trial.GoNoGo_Practice.startTime";"trial.GoNoGo_Practice.stimulus type";"trial.GoNoGo_Tutorial.durationTime";"trial.GoNoGo_Tutorial.endTime";"trial.GoNoGo_Tutorial.icon";"trial.GoNoGo_Tutorial.location";"trial.GoNoGo_Tutorial.outcome";"trial.GoNoGo_Tutorial.response";"trial.GoNoGo_Tutorial.result";"trial.GoNoGo_Tutorial.RT";"trial.GoNoGo_Tutorial.signal";"trial.GoNoGo_Tutorial.startTime"
"unicomp_firefox";;;"Windows XP";"Rachels Experiment";"1.0";"1";"1";"1";"1";"1";"1";"2013-11-25 13:04:07.099";"2013-11-25 13:07:48.786";"1";"0";"1";"0";"0";"1";"0";"module.GoNoGotutorial.exec-2507.GoNoGo_Tutorial";;;;;;;;;;;;;;;;;;;;;;;;;;;;;;;;;;"3993";"2013-11-25 13:04:14.989";"leftResponse";"0";"FINISHED";"NONE";"failure";"0";"0";"2013-11-25 13:04:10.989"
"unicomp_firefox";;;"Windows XP";"Rachels Experiment";"1.0";"1";"1";"1";"1";"1";"1";"2013-11-25 13:04:07.099";"2013-11-25 13:07:48.786";"1";"0";"1";"0";"0";"2";"1";"module.GoNoGotutorial.exec-2507.GoNoGo_Tutorial";;;;;;;;;;;;;;;;;;;;;;;;;;;;;;;;;;"3994";"2013-11-25 13:04:20.255";"rightResponse";"1";"FINISHED";"NONE";"failure";"0";"0";"2013-11-25 13:04:16.255"
"unicomp_firefox";;;"Windows XP";"Rachels Experiment";"1.0";"1";"1";"1";"1";"1";"1";"2013-11-25 13:04:07.099";"2013-11-25 13:07:48.786";"1";"0";"1";"0";"0";"3";"2";"module.GoNoGotutorial.exec-2507.GoNoGo_Tutorial";;;;;;;;;;;;;;;;;;;;;;;;;;;;;;;;;;"3996";"2013-11-25 13:04:25.520";"quickResponse";"0";"FINISHED";"NONE";"failure";"0";"0";"2013-11-25 13:04:21.520"
"unicomp_firefox";;;"Windows XP";"Rachels Experiment";"1.0";"1";"1";"1";"1";"1";"1";"2013-11-25 13:04:07.099";"2013-11-25 13:07:48.786";"1";"0";"1";"0";"0";"4";"3";"module.GoNoGopractice.exec-1287.GoNoGo_Practice";;;;;;;;;;;;;;;;;;;;;;;"1948";"2013-11-25 13:04:33.192";"18";"0";"FINISHED";"NONE";"failure";"0";"0";"2013-11-25 13:04:31.239";"3";;;;;;;;;;
"unicomp_firefox";;;"Windows XP";"Rachels Experiment";"1.0";"1";"1";"1";"1";"1";"1";"2013-11-25 13:04:07.099";"2013-11-25 13:07:48.786";"1";"0";"1";"0";"0";"5";"4";"module.GoNoGopractice.exec-1287.GoNoGo_Practice";;;;;;;;;;;;;;;;;;;;;;;"1949";"2013-11-25 13:04:36.411";"21";"1";"FINISHED";"NONE";"failure";"0";"0";"2013-11-25 13:04:34.458";"3";;;;;;;;;;
"unicomp_firefox";;;"Windows XP";"Rachels Experiment";"1.0";"1";"1";"1";"1";"1";"1";"2013-11-25 13:04:07.099";"2013-11-25 13:07:48.786";"1";"0";"1";"0";"0";"6";"5";"module.GoNoGopractice.exec-1287.GoNoGo_Practice";;;;;;;;;;;;;;;;;;;;;;;"1949";"2013-11-25 13:04:39.630";"14";"1";"FINISHED";"NONE";"failure";"0";"0";"2013-11-25 13:04:37.677";"2";;;;;;;;;;
"unicomp_firefox";;;"Windows XP";"Rachels Experiment";"1.0";"1";"1";"1";"1";"1";"1";"2013-11-25 13:04:07.099";"2013-11-25 13:07:48.786";"1";"0";"1";"0";"0";"7";"6";"module.GoNoGopractice.exec-1287.GoNoGo_Practice";;;;;;;;;;;;;;;;;;;;;;;"1949";"2013-11-25 13:04:42.849";"26";"0";"FINISHED";"NONE";"failure";"0";"0";"2013-11-25 13:04:40.895";"3";;;;;;;;;;
"unicomp_firefox";;;"Windows XP";"Rachels Experiment";"1.0";"1";"1";"1";"1";"1";"1";"2013-11-25 13:04:07.099";"2013-11-25 13:07:48.786";"1";"0";"1";"0";"0";"8";"7";"module.GoNoGopractice.exec-1287.GoNoGo_Practice";;;;;;;;;;;;;;;;;;;;;;;"1949";"2013-11-25 13:04:46.067";"2";"0";"FINISHED";"NONE";"failure";"0";"0";"2013-11-25 13:04:44.114";"1";;;;;;;;;;
"unicomp_firefox";;;"Windows XP";"Rachels Experiment";"1.0";"1";"1";"1";"1";"1";"1";"2013-11-25 13:04:07.099";"2013-11-25 13:07:48.786";"1";"0";"1";"0";"0";"9";"8";"module.GoNoGopractice.exec-1287.GoNoGo_Practice";;;;;;;;;;;;;;;;;;;;;;;"1949";"2013-11-25 13:04:49.286";"30";"0";"FINISHED";"NONE";"failure";"0";"0";"2013-11-25 13:04:47.333";"3";;;;;;;;;;
"unicomp_firefox";;;"Windows XP";"Rachels Experiment";"1.0";"1";"1";"1";"1";"1";"1";"2013-11-25 13:04:07.099";"2013-11-25 13:07:48.786";"1";"0";"1";"0";"0";"10";"9";"module.GoNoGopractice.exec-1287.GoNoGo_Practice";;;;;;;;;;;;;;;;;;;;;;;"1949";"2013-11-25 13:04:52.505";"6";"1";"FINISHED";"NONE";"failure";"0";"0";"2013-11-25 13:04:50.552";"1";;;;;;;;;;
"unicomp_firefox";;;"Windows XP";"Rachels Experiment";"1.0";"1";"1";"1";"1";"1";"1";"2013-11-25 13:04:07.099";"2013-11-25 13:07:48.786";"1";"0";"1";"0";"0";"11";"10";"module.GoNoGopractice.exec-1287.GoNoGo_Practice";;;;;;;;;;;;;;;;;;;;;;;"1949";"2013-11-25 13:04:55.724";"34";"0";"FINISHED";"NONE";"failure";"0";"0";"2013-11-25 13:04:53.770";"3";;;;;;;;;;
"unicomp_firefox";;;"Windows XP";"Rachels Experiment";"1.0";"1";"1";"1";"1";"1";"1";"2013-11-25 13:04:07.099";"2013-11-25 13:07:48.786";"1";"0";"1";"0";"0";"12";"11";"module.GoNoGopractice.exec-1287.GoNoGo_Practice";;;;;;;;;;;;;;;;;;;;;;;"1949";"2013-11-25 13:04:58.942";"23";"1";"FINISHED";"NONE";"failure";"0";"0";"2013-11-25 13:04:56.989";"3";;;;;;;;;;
"unicomp_firefox";;;"Windows XP";"Rachels Experiment";"1.0";"1";"1";"1";"1";"1";"1";"2013-11-25 13:04:07.099";"2013-11-25 13:07:48.786";"1";"0";"1";"0";"0";"13";"12";"module.GoNoGopractice.exec-1287.GoNoGo_Practice";;;;;;;;;;;;;;;;;;;;;;;"1949";"2013-11-25 13:05:02.161";"13";"0";"FINISHED";"NONE";"failure";"0";"0";"2013-11-25 13:05:00.208";"2";;;;;;;;;;
"unicomp_firefox";;;"Windows XP";"Rachels Experiment";"1.0";"1";"1";"1";"1";"1";"1";"2013-11-25 13:04:07.099";"2013-11-25 13:07:48.786";"1";"0";"1";"0";"0";"14";"13";"module.GoNoGopractice.exec-1287.GoNoGo_Practice";;;;;;;;;;;;;;;;;;;;;;;"1949";"2013-11-25 13:05:05.380";"3";"1";"FINISHED";"NONE";"failure";"0";"0";"2013-11-25 13:05:03.427";"1";;;;;;;;;;
"unicomp_firefox";;;"Windows XP";"Rachels Experiment";"1.0";"1";"1";"1";"1";"1";"1";"2013-11-25 13:04:07.099";"2013-11-25 13:07:48.786";"1";"0";"1";"0";"0";"15";"14";"module.GoNoGopractice.exec-1287.GoNoGo_Practice";;;;;;;;;;;;;;;;;;;;;;;"1949";"2013-11-25 13:05:08.599";"27";"1";"FINISHED";"RIGHT";"success";"236";"0";"2013-11-25 13:05:06.645";"3";;;;;;;;;;
"unicomp_firefox";;;"Windows XP";"Rachels Experiment";"1.0";"1";"1";"1";"1";"1";"1";"2013-11-25 13:04:07.099";"2013-11-25 13:07:48.786";"1";"0";"1";"0";"0";"16";"15";"module.training_block1.exec-4911.GoNoGo1";"1248";"2013-11-25 13:05:14.708";"2";"1";"FINISHED";"NONE";"failure";"0";"0";"2013-11-25 13:05:13.458";"1";;;;;;;;;;;;;;;;;;;;;;;;;;;;;;;;
"unicomp_firefox";;;"Windows XP";"Rachels Experiment";"1.0";"1";"1";"1";"1";"1";"1";"2013-11-25 13:04:07.099";"2013-11-25 13:07:48.786";"1";"0";"1";"0";"0";"17";"16";"module.training_block1.exec-4911.GoNoGo1";"1246";"2013-11-25 13:05:17.224";"7";"1";"FINISHED";"NONE";"failure";"0";"0";"2013-11-25 13:05:15.974";"1";;;;;;;;;;;;;;;;;;;;;;;;;;;;;;;;
"unicomp_firefox";;;"Windows XP";"Rachels Experiment";"1.0";"1";"1";"1";"1";"1";"1";"2013-11-25 13:04:07.099";"2013-11-25 13:07:48.786";"1";"0";"1";"0";"0";"18";"17";"module.training_block1.exec-4911.GoNoGo1";"1246";"2013-11-25 13:05:19.739";"22";"1";"FINISHED";"NONE";"failure";"0";"0";"2013-11-25 13:05:18.489";"3";;;;;;;;;;;;;;;;;;;;;;;;;;;;;;;;
"unicomp_firefox";;;"Windows XP";"Rachels Experiment";"1.0";"1";"1";"1";"1";"1";"1";"2013-11-25 13:04:07.099";"2013-11-25 13:07:48.786";"1";"0";"1";"0";"0";"19";"18";"module.training_block1.exec-4911.GoNoGo1";"1246";"2013-11-25 13:05:22.255";"15";"0";"FINISHED";"NONE";"failure";"0";"0";"2013-11-25 13:05:21.005";"2";;;;;;;;;;;;;;;;;;;;;;;;;;;;;;;;
"unicomp_firefox";;;"Windows XP";"Rachels Experiment";"1.0";"1";"1";"1";"1";"1";"1";"2013-11-25 13:04:07.099";"2013-11-25 13:07:48.786";"1";"0";"1";"0";"0";"20";"19";"module.training_block1.exec-4911.GoNoGo1";"1248";"2013-11-25 13:05:24.770";"13";"1";"FINISHED";"NONE";"failure";"0";"0";"2013-11-25 13:05:23.520";"2";;;;;;;;;;;;;;;;;;;;;;;;;;;;;;;;
"unicomp_firefox";;;"Windows XP";"Rachels Experiment";"1.0";"1";"1";"1";"1";"1";"1";"2013-11-25 13:04:07.099";"2013-11-25 13:07:48.786";"1";"0";"1";"0";"0";"21";"20";"module.training_block1.exec-4911.GoNoGo1";"1248";"2013-11-25 13:05:27.286";"30";"0";"FINISHED";"NONE";"failure";"0";"0";"2013-11-25 13:05:26.036";"3";;;;;;;;;;;;;;;;;;;;;;;;;;;;;;;;
"unicomp_firefox";;;"Windows XP";"Rachels Experiment";"1.0";"1";"1";"1";"1";"1";"1";"2013-11-25 13:04:07.099";"2013-11-25 13:07:48.786";"1";"0";"1";"0";"0";"22";"21";"module.training_block1.exec-4911.GoNoGo1";"1245";"2013-11-25 13:05:29.802";"32";"0";"FINISHED";"NONE";"failure";"0";"0";"2013-11-25 13:05:28.552";"3";;;;;;;;;;;;;;;;;;;;;;;;;;;;;;;;
"unicomp_firefox";;;"Windows XP";"Rachels Experiment";"1.0";"1";"1";"1";"1";"1";"1";"2013-11-25 13:04:07.099";"2013-11-25 13:07:48.786";"1";"0";"1";"0";"0";"23";"22";"module.training_block1.exec-4911.GoNoGo1";"1248";"2013-11-25 13:05:32.317";"6";"0";"FINISHED";"NONE";"failure";"0";"0";"2013-11-25 13:05:31.067";"1";;;;;;;;;;;;;;;;;;;;;;;;;;;;;;;;
"unicomp_firefox";;;"Windows XP";"Rachels Experiment";"1.0";"1";"1";"1";"1";"1";"1";"2013-11-25 13:04:07.099";"2013-11-25 13:07:48.786";"1";"0";"1";"0";"0";"24";"23";"module.training_block1.exec-4911.GoNoGo1";"1248";"2013-11-25 13:05:34.817";"21";"1";"FINISHED";"NONE";"failure";"0";"0";"2013-11-25 13:05:33.567";"3";;;;;;;;;;;;;;;;;;;;;;;;;;;;;;;;
"unicomp_firefox";;;"Windows XP";"Rachels Experiment";"1.0";"1";"1";"1";"1";"1";"1";"2013-11-25 13:04:07.099";"2013-11-25 13:07:48.786";"1";"0";"1";"0";"0";"25";"24";"module.training_block1.exec-4911.GoNoGo1";"1246";"2013-11-25 13:05:37.333";"12";"0";"FINISHED";"NONE";"failure";"0";"0";"2013-11-25 13:05:36.083";"2";;;;;;;;;;;;;;;;;;;;;;;;;;;;;;;;
"unicomp_firefox";;;"Windows XP";"Rachels Experiment";"1.0";"1";"1";"1";"1";"1";"1";"2013-11-25 13:04:07.099";"2013-11-25 13:07:48.786";"1";"0";"1";"0";"0";"26";"25";"module.training_block1.exec-4911.GoNoGo1";"1246";"2013-11-25 13:05:39.833";"0";"1";"FINISHED";"NONE";"failure";"0";"0";"2013-11-25 13:05:38.583";"1";;;;;;;;;;;;;;;;;;;;;;;;;;;;;;;;
"unicomp_firefox";;;"Windows XP";"Rachels Experiment";"1.0";"1";"1";"1";"1";"1";"1";"2013-11-25 13:04:07.099";"2013-11-25 13:07:48.786";"1";"0";"1";"0";"0";"27";"26";"module.training_block1.exec-4911.GoNoGo1";"1246";"2013-11-25 13:05:42.333";"33";"0";"FINISHED";"NONE";"failure";"0";"0";"2013-11-25 13:05:41.083";"3";;;;;;;;;;;;;;;;;;;;;;;;;;;;;;;;
"unicomp_firefox";;;"Windows XP";"Rachels Experiment";"1.0";"1";"1";"1";"1";"1";"1";"2013-11-25 13:04:07.099";"2013-11-25 13:07:48.786";"1";"0";"1";"0";"0";"28";"27";"module.training_block1.exec-4911.GoNoGo1";"1246";"2013-11-25 13:05:44.833";"20";"0";"FINISHED";"NONE";"failure";"0";"0";"2013-11-25 13:05:43.583";"3";;;;;;;;;;;;;;;;;;;;;;;;;;;;;;;;
"unicomp_firefox";;;"Windows XP";"Rachels Experiment";"1.0";"1";"1";"1";"1";"1";"1";"2013-11-25 13:04:07.099";"2013-11-25 13:07:48.786";"1";"0";"1";"0";"0";"29";"28";"module.training_block1.exec-4911.GoNoGo1";"1246";"2013-11-25 13:05:47.333";"31";"0";"FINISHED";"NONE";"failure";"0";"0";"2013-11-25 13:05:46.083";"3";;;;;;;;;;;;;;;;;;;;;;;;;;;;;;;;
"unicomp_firefox";;;"Windows XP";"Rachels Experiment";"1.0";"1";"1";"1";"1";"1";"1";"2013-11-25 13:04:07.099";"2013-11-25 13:07:48.786";"1";"0";"1";"0";"0";"30";"29";"module.training_block1.exec-4911.GoNoGo1";"1246";"2013-11-25 13:05:49.833";"9";"0";"FINISHED";"NONE";"failure";"0";"0";"2013-11-25 13:05:48.583";"2";;;;;;;;;;;;;;;;;;;;;;;;;;;;;;;;
"unicomp_firefox";;;"Windows XP";"Rachels Experiment";"1.0";"1";"1";"1";"1";"1";"1";"2013-11-25 13:04:07.099";"2013-11-25 13:07:48.786";"1";"0";"1";"0";"0";"31";"30";"module.training_block1.exec-4911.GoNoGo1";"1246";"2013-11-25 13:05:52.333";"19";"0";"FINISHED";"NONE";"failure";"0";"0";"2013-11-25 13:05:51.083";"3";;;;;;;;;;;;;;;;;;;;;;;;;;;;;;;;
"unicomp_firefox";;;"Windows XP";"Rachels Experiment";"1.0";"1";"1";"1";"1";"1";"1";"2013-11-25 13:04:07.099";"2013-11-25 13:07:48.786";"1";"0";"1";"0";"0";"32";"31";"module.training_block1.exec-4911.GoNoGo1";"1248";"2013-11-25 13:05:54.833";"23";"1";"FINISHED";"NONE";"failure";"0";"0";"2013-11-25 13:05:53.583";"3";;;;;;;;;;;;;;;;;;;;;;;;;;;;;;;;
"unicomp_firefox";;;"Windows XP";"Rachels Experiment";"1.0";"1";"1";"1";"1";"1";"1";"2013-11-25 13:04:07.099";"2013-11-25 13:07:48.786";"1";"0";"1";"0";"0";"33";"32";"module.training_block1.exec-4911.GoNoGo1";"1246";"2013-11-25 13:05:57.349";"16";"1";"FINISHED";"NONE";"failure";"0";"0";"2013-11-25 13:05:56.099";"2";;;;;;;;;;;;;;;;;;;;;;;;;;;;;;;;
"unicomp_firefox";;;"Windows XP";"Rachels Experiment";"1.0";"1";"1";"1";"1";"1";"1";"2013-11-25 13:04:07.099";"2013-11-25 13:07:48.786";"1";"0";"1";"0";"0";"34";"33";"module.training_block1.exec-4911.GoNoGo1";"1248";"2013-11-25 13:05:59.864";"3";"1";"FINISHED";"NONE";"failure";"0";"0";"2013-11-25 13:05:58.614";"1";;;;;;;;;;;;;;;;;;;;;;;;;;;;;;;;
"unicomp_firefox";;;"Windows XP";"Rachels Experiment";"1.0";"1";"1";"1";"1";"1";"1";"2013-11-25 13:04:07.099";"2013-11-25 13:07:48.786";"1";"0";"1";"0";"0";"35";"34";"module.training_block1.exec-4911.GoNoGo1";"1246";"2013-11-25 13:06:02.364";"29";"0";"FINISHED";"NONE";"failure";"0";"0";"2013-11-25 13:06:01.114";"3";;;;;;;;;;;;;;;;;;;;;;;;;;;;;;;;
"unicomp_firefox";;;"Windows XP";"Rachels Experiment";"1.0";"1";"1";"1";"1";"1";"1";"2013-11-25 13:04:07.099";"2013-11-25 13:07:48.786";"1";"0";"1";"0";"0";"36";"35";"module.training_block1.exec-4911.GoNoGo1";"1246";"2013-11-25 13:06:04.880";"17";"0";"FINISHED";"NONE";"failure";"0";"0";"2013-11-25 13:06:03.630";"2";;;;;;;;;;;;;;;;;;;;;;;;;;;;;;;;
"unicomp_firefox";;;"Windows XP";"Rachels Experiment";"1.0";"1";"1";"1";"1";"1";"1";"2013-11-25 13:04:07.099";"2013-11-25 13:07:48.786";"1";"0";"1";"0";"0";"37";"36";"module.training_block1.exec-4911.GoNoGo1";"1246";"2013-11-25 13:06:07.380";"8";"1";"FINISHED";"NONE";"failure";"0";"0";"2013-11-25 13:06:06.130";"1";;;;;;;;;;;;;;;;;;;;;;;;;;;;;;;;
"unicomp_firefox";;;"Windows XP";"Rachels Experiment";"1.0";"1";"1";"1";"1";"1";"1";"2013-11-25 13:04:07.099";"2013-11-25 13:07:48.786";"1";"0";"1";"0";"0";"38";"37";"module.training_block1.exec-4911.GoNoGo1";"1246";"2013-11-25 13:06:09.895";"10";"0";"FINISHED";"NONE";"failure";"0";"0";"2013-11-25 13:06:08.645";"2";;;;;;;;;;;;;;;;;;;;;;;;;;;;;;;;
"unicomp_firefox";;;"Windows XP";"Rachels Experiment";"1.0";"1";"1";"1";"1";"1";"1";"2013-11-25 13:04:07.099";"2013-11-25 13:07:48.786";"1";"0";"1";"0";"0";"39";"38";"module.training_block1.exec-4911.GoNoGo1";"1246";"2013-11-25 13:06:12.395";"35";"1";"FINISHED";"NONE";"failure";"0";"0";"2013-11-25 13:06:11.145";"3";;;;;;;;;;;;;;;;;;;;;;;;;;;;;;;;
"unicomp_firefox";;;"Windows XP";"Rachels Experiment";"1.0";"1";"1";"1";"1";"1";"1";"2013-11-25 13:04:07.099";"2013-11-25 13:07:48.786";"1";"0";"1";"0";"0";"40";"39";"module.training_block1.exec-4911.GoNoGo1";"1246";"2013-11-25 13:06:14.895";"25";"1";"FINISHED";"NONE";"failure";"0";"0";"2013-11-25 13:06:13.645";"3";;;;;;;;;;;;;;;;;;;;;;;;;;;;;;;;
"unicomp_firefox";;;"Windows XP";"Rachels Experiment";"1.0";"1";"1";"1";"1";"1";"1";"2013-11-25 13:04:07.099";"2013-11-25 13:07:48.786";"1";"0";"1";"0";"0";"41";"40";"module.training_block1.exec-4911.GoNoGo1";"1246";"2013-11-25 13:06:17.395";"4";"1";"FINISHED";"NONE";"failure";"0";"0";"2013-11-25 13:06:16.145";"1";;;;;;;;;;;;;;;;;;;;;;;;;;;;;;;;
"unicomp_firefox";;;"Windows XP";"Rachels Experiment";"1.0";"1";"1";"1";"1";"1";"1";"2013-11-25 13:04:07.099";"2013-11-25 13:07:48.786";"1";"0";"1";"0";"0";"42";"41";"module.training_block1.exec-4911.GoNoGo1";"1248";"2013-11-25 13:06:19.895";"34";"1";"FINISHED";"NONE";"failure";"0";"0";"2013-11-25 13:06:18.645";"3";;;;;;;;;;;;;;;;;;;;;;;;;;;;;;;;
"unicomp_firefox";;;"Windows XP";"Rachels Experiment";"1.0";"1";"1";"1";"1";"1";"1";"2013-11-25 13:04:07.099";"2013-11-25 13:07:48.786";"1";"0";"1";"0";"0";"43";"42";"module.training_block1.exec-4911.GoNoGo1";"1248";"2013-11-25 13:06:22.395";"14";"0";"FINISHED";"NONE";"failure";"0";"0";"2013-11-25 13:06:21.145";"2";;;;;;;;;;;;;;;;;;;;;;;;;;;;;;;;
"unicomp_firefox";;;"Windows XP";"Rachels Experiment";"1.0";"1";"1";"1";"1";"1";"1";"2013-11-25 13:04:07.099";"2013-11-25 13:07:48.786";"1";"0";"1";"0";"0";"44";"43";"module.training_block1.exec-4911.GoNoGo1";"1246";"2013-11-25 13:06:24.895";"1";"0";"FINISHED";"NONE";"failure";"0";"0";"2013-11-25 13:06:23.645";"1";;;;;;;;;;;;;;;;;;;;;;;;;;;;;;;;
"unicomp_firefox";;;"Windows XP";"Rachels Experiment";"1.0";"1";"1";"1";"1";"1";"1";"2013-11-25 13:04:07.099";"2013-11-25 13:07:48.786";"1";"0";"1";"0";"0";"45";"44";"module.training_block1.exec-4911.GoNoGo1";"1248";"2013-11-25 13:06:27.395";"26";"1";"FINISHED";"NONE";"failure";"0";"0";"2013-11-25 13:06:26.145";"3";;;;;;;;;;;;;;;;;;;;;;;;;;;;;;;;
"unicomp_firefox";;;"Windows XP";"Rachels Experiment";"1.0";"1";"1";"1";"1";"1";"1";"2013-11-25 13:04:07.099";"2013-11-25 13:07:48.786";"1";"0";"1";"0";"0";"46";"45";"module.training_block1.exec-4911.GoNoGo1";"1246";"2013-11-25 13:06:29.895";"5";"1";"FINISHED";"NONE";"failure";"0";"0";"2013-11-25 13:06:28.645";"1";;;;;;;;;;;;;;;;;;;;;;;;;;;;;;;;
"unicomp_firefox";;;"Windows XP";"Rachels Experiment";"1.0";"1";"1";"1";"1";"1";"1";"2013-11-25 13:04:07.099";"2013-11-25 13:07:48.786";"1";"0";"1";"0";"0";"47";"46";"module.training_block1.exec-4911.GoNoGo1";"1246";"2013-11-25 13:06:32.395";"24";"1";"FINISHED";"NONE";"failure";"0";"0";"2013-11-25 13:06:31.145";"3";;;;;;;;;;;;;;;;;;;;;;;;;;;;;;;;
"unicomp_firefox";;;"Windows XP";"Rachels Experiment";"1.0";"1";"1";"1";"1";"1";"1";"2013-11-25 13:04:07.099";"2013-11-25 13:07:48.786";"1";"0";"1";"0";"0";"48";"47";"module.training_block1.exec-4911.GoNoGo1";"1248";"2013-11-25 13:06:34.895";"18";"0";"FINISHED";"NONE";"failure";"0";"0";"2013-11-25 13:06:33.645";"3";;;;;;;;;;;;;;;;;;;;;;;;;;;;;;;;
"unicomp_firefox";;;"Windows XP";"Rachels Experiment";"1.0";"1";"1";"1";"1";"1";"1";"2013-11-25 13:04:07.099";"2013-11-25 13:07:48.786";"1";"0";"1";"0";"0";"49";"48";"module.training_block1.exec-4911.GoNoGo1";"1246";"2013-11-25 13:06:37.395";"28";"0";"FINISHED";"NONE";"failure";"0";"0";"2013-11-25 13:06:36.145";"3";;;;;;;;;;;;;;;;;;;;;;;;;;;;;;;;
"unicomp_firefox";;;"Windows XP";"Rachels Experiment";"1.0";"1";"1";"1";"1";"1";"1";"2013-11-25 13:04:07.099";"2013-11-25 13:07:48.786";"1";"0";"1";"0";"0";"50";"49";"module.training_block1.exec-4911.GoNoGo1";"1248";"2013-11-25 13:06:39.895";"27";"1";"FINISHED";"NONE";"failure";"0";"0";"2013-11-25 13:06:38.645";"3";;;;;;;;;;;;;;;;;;;;;;;;;;;;;;;;
"unicomp_firefox";;;"Windows XP";"Rachels Experiment";"1.0";"1";"1";"1";"1";"1";"1";"2013-11-25 13:04:07.099";"2013-11-25 13:07:48.786";"1";"0";"1";"0";"0";"51";"50";"module.training_block1.exec-4911.GoNoGo1";"1245";"2013-11-25 13:06:42.395";"11";"1";"FINISHED";"NONE";"failure";"0";"0";"2013-11-25 13:06:41.145";"2";;;;;;;;;;;;;;;;;;;;;;;;;;;;;;;;
"unicomp_firefox";;;"Windows XP";"Rachels Experiment";"1.0";"1";"1";"1";"1";"1";"1";"2013-11-25 13:04:07.099";"2013-11-25 13:07:48.786";"1";"0";"1";"0";"0";"52";"51";"module.training_block2.exec-6168.GoNoGo2";;;;;;;;;;;;"1248";"2013-11-25 13:07:00.130";"32";"1";"FINISHED";"NONE";"failure";"0";"0";"2013-11-25 13:06:58.880";"3";;;;;;;;;;;;;;;;;;;;;
"unicomp_firefox";;;"Windows XP";"Rachels Experiment";"1.0";"1";"1";"1";"1";"1";"1";"2013-11-25 13:04:07.099";"2013-11-25 13:07:48.786";"1";"0";"1";"0";"0";"53";"52";"module.training_block2.exec-6168.GoNoGo2";;;;;;;;;;;;"1248";"2013-11-25 13:07:02.645";"29";"0";"FINISHED";"NONE";"failure";"0";"0";"2013-11-25 13:07:01.395";"3";;;;;;;;;;;;;;;;;;;;;
"unicomp_firefox";;;"Windows XP";"Rachels Experiment";"1.0";"1";"1";"1";"1";"1";"1";"2013-11-25 13:04:07.099";"2013-11-25 13:07:48.786";"1";"0";"1";"0";"0";"54";"53";"module.training_block2.exec-6168.GoNoGo2";;;;;;;;;;;;"1248";"2013-11-25 13:07:05.145";"14";"1";"FINISHED";"NONE";"failure";"0";"0";"2013-11-25 13:07:03.895";"2";;;;;;;;;;;;;;;;;;;;;
"unicomp_firefox";;;"Windows XP";"Rachels Experiment";"1.0";"1";"1";"1";"1";"1";"1";"2013-11-25 13:04:07.099";"2013-11-25 13:07:48.786";"1";"0";"1";"0";"0";"55";"54";"module.training_block2.exec-6168.GoNoGo2";;;;;;;;;;;;"1248";"2013-11-25 13:07:07.645";"31";"0";"FINISHED";"NONE";"failure";"0";"0";"2013-11-25 13:07:06.395";"3";;;;;;;;;;;;;;;;;;;;;
"unicomp_firefox";;;"Windows XP";"Rachels Experiment";"1.0";"1";"1";"1";"1";"1";"1";"2013-11-25 13:04:07.099";"2013-11-25 13:07:48.786";"1";"0";"1";"0";"0";"56";"55";"module.training_block2.exec-6168.GoNoGo2";;;;;;;;;;;;"1248";"2013-11-25 13:07:10.145";"1";"1";"FINISHED";"NONE";"failure";"0";"0";"2013-11-25 13:07:08.895";"1";;;;;;;;;;;;;;;;;;;;;
"unicomp_firefox";;;"Windows XP";"Rachels Experiment";"1.0";"1";"1";"1";"1";"1";"1";"2013-11-25 13:04:07.099";"2013-11-25 13:07:48.786";"1";"0";"1";"0";"0";"57";"56";"module.training_block2.exec-6168.GoNoGo2";;;;;;;;;;;;"1248";"2013-11-25 13:07:12.645";"5";"0";"FINISHED";"NONE";"failure";"0";"0";"2013-11-25 13:07:11.395";"1";;;;;;;;;;;;;;;;;;;;;
"unicomp_firefox";;;"Windows XP";"Rachels Experiment";"1.0";"1";"1";"1";"1";"1";"1";"2013-11-25 13:04:07.099";"2013-11-25 13:07:48.786";"1";"0";"1";"0";"0";"58";"57";"module.training_block2.exec-6168.GoNoGo2";;;;;;;;;;;;"1248";"2013-11-25 13:07:15.145";"27";"0";"FINISHED";"NONE";"failure";"0";"0";"2013-11-25 13:07:13.895";"3";;;;;;;;;;;;;;;;;;;;;
"unicomp_firefox";;;"Windows XP";"Rachels Experiment";"1.0";"1";"1";"1";"1";"1";"1";"2013-11-25 13:04:07.099";"2013-11-25 13:07:48.786";"1";"0";"1";"0";"0";"59";"58";"module.training_block2.exec-6168.GoNoGo2";;;;;;;;;;;;"1248";"2013-11-25 13:07:17.645";"24";"1";"FINISHED";"NONE";"failure";"0";"0";"2013-11-25 13:07:16.395";"3";;;;;;;;;;;;;;;;;;;;;
"unicomp_firefox";;;"Windows XP";"Rachels Experiment";"1.0";"1";"1";"1";"1";"1";"1";"2013-11-25 13:04:07.099";"2013-11-25 13:07:48.786";"1";"0";"1";"0";"0";"60";"59";"module.training_block2.exec-6168.GoNoGo2";;;;;;;;;;;;"1248";"2013-11-25 13:07:20.145";"8";"1";"FINISHED";"NONE";"failure";"0";"0";"2013-11-25 13:07:18.895";"1";;;;;;;;;;;;;;;;;;;;;
"unicomp_firefox";;;"Windows XP";"Rachels Experiment";"1.0";"1";"1";"1";"1";"1";"1";"2013-11-25 13:04:07.099";"2013-11-25 13:07:48.786";"1";"0";"1";"0";"0";"61";"60";"module.training_block2.exec-6168.GoNoGo2";;;;;;;;;;;;"1248";"2013-11-25 13:07:22.645";"17";"1";"FINISHED";"NONE";"failure";"0";"0";"2013-11-25 13:07:21.395";"2";;;;;;;;;;;;;;;;;;;;;
"unicomp_firefox";;;"Windows XP";"Rachels Experiment";"1.0";"1";"1";"1";"1";"1";"1";"2013-11-25 13:04:07.099";"2013-11-25 13:07:48.786";"1";"0";"1";"0";"0";"62";"61";"module.training_block2.exec-6168.GoNoGo2";;;;;;;;;;;;"1248";"2013-11-25 13:07:25.145";"20";"0";"FINISHED";"NONE";"failure";"0";"0";"2013-11-25 13:07:23.895";"3";;;;;;;;;;;;;;;;;;;;;
"unicomp_firefox";;;"Windows XP";"Rachels Experiment";"1.0";"1";"1";"1";"1";"1";"1";"2013-11-25 13:04:07.099";"2013-11-25 13:07:48.786";"1";"0";"1";"0";"0";"63";"62";"module.training_block2.exec-6168.GoNoGo2";;;;;;;;;;;;"1248";"2013-11-25 13:07:27.645";"33";"1";"FINISHED";"NONE";"failure";"0";"0";"2013-11-25 13:07:26.395";"3";;;;;;;;;;;;;;;;;;;;;
"unicomp_firefox";;;"Windows XP";"Rachels Experiment";"1.0";"1";"1";"1";"1";"1";"1";"2013-11-25 13:04:07.099";"2013-11-25 13:07:48.786";"1";"0";"1";"0";"0";"64";"63";"module.training_block2.exec-6168.GoNoGo2";;;;;;;;;;;;"1248";"2013-11-25 13:07:30.145";"18";"1";"FINISHED";"NONE";"failure";"0";"0";"2013-11-25 13:07:28.895";"3";;;;;;;;;;;;;;;;;;;;;
"unicomp_firefox";;;"Windows XP";"Rachels Experiment";"1.0";"1";"1";"1";"1";"1";"1";"2013-11-25 13:04:07.099";"2013-11-25 13:07:48.786";"1";"0";"1";"0";"0";"65";"64";"module.training_block2.exec-6168.GoNoGo2";;;;;;;;;;;;"1248";"2013-11-25 13:07:32.645";"15";"0";"FINISHED";"NONE";"failure";"0";"0";"2013-11-25 13:07:31.395";"2";;;;;;;;;;;;;;;;;;;;;
"unicomp_firefox";;;"Windows XP";"Rachels Experiment";"1.0";"1";"1";"1";"1";"1";"1";"2013-11-25 13:04:07.099";"2013-11-25 13:07:48.786";"1";"0";"1";"0";"0";"66";"65";"module.training_block2.exec-6168.GoNoGo2";;;;;;;;;;;;"1248";"2013-11-25 13:07:35.145";"0";"0";"FINISHED";"NONE";"failure";"0";"0";"2013-11-25 13:07:33.895";"1";;;;;;;;;;;;;;;;;;;;;
"unicomp_firefox";;;"Windows XP";"Rachels Experiment";"1.0";"1";"1";"1";"1";"1";"1";"2013-11-25 13:04:07.099";"2013-11-25 13:07:48.786";"1";"0";"1";"0";"0";"67";"66";"module.training_block2.exec-6168.GoNoGo2";;;;;;;;;;;;"1248";"2013-11-25 13:07:37.645";"25";"1";"FINISHED";"NONE";"failure";"0";"0";"2013-11-25 13:07:36.395";"3";;;;;;;;;;;;;;;;;;;;;
"unicomp_firefox";;;"Windows XP";"Rachels Experiment";"1.0";"1";"1";"1";"1";"1";"1";"2013-11-25 13:04:07.099";"2013-11-25 13:07:48.786";"1";"0";"1";"0";"0";"68";"67";"module.training_block2.exec-6168.GoNoGo2";;;;;;;;;;;;"1248";"2013-11-25 13:07:40.145";"3";"0";"FINISHED";"NONE";"failure";"0";"0";"2013-11-25 13:07:38.895";"1";;;;;;;;;;;;;;;;;;;;;
"unicomp_firefox";;;"Windows XP";"Rachels Experiment";"1.0";"1";"1";"1";"1";"1";"1";"2013-11-25 13:04:07.099";"2013-11-25 13:07:48.786";"1";"0";"1";"0";"0";"69";"68";"module.training_block2.exec-6168.GoNoGo2";;;;;;;;;;;;"1248";"2013-11-25 13:07:42.645";"4";"1";"FINISHED";"NONE";"failure";"0";"0";"2013-11-25 13:07:41.395";"1";;;;;;;;;;;;;;;;;;;;;
"unicomp_firefox";;;"Windows XP";"Rachels Experiment";"1.0";"1";"1";"1";"1";"1";"1";"2013-11-25 13:04:07.099";"2013-11-25 13:07:48.786";"1";"0";"1";"0";"0";"70";"69";"module.training_block2.exec-6168.GoNoGo2";;;;;;;;;;;;"1248";"2013-11-25 13:07:45.145";"12";"0";"FINISHED";"NONE";"failure";"0";"0";"2013-11-25 13:07:43.895";"2";;;;;;;;;;;;;;;;;;;;;
"unicomp_firefox";;;"Windows XP";"Rachels Experiment";"1.0";"1";"1";"1";"1";"1";"1";"2013-11-25 13:04:07.099";"2013-11-25 13:07:48.786";"1";"0";"1";"0";"0";"71";"70";"module.training_block2.exec-6168.GoNoGo2";;;;;;;;;;;;"1248";"2013-11-25 13:07:47.645";"35";"1";"FINISHED";"NONE";"failure";"0";"0";"2013-11-25 13:07:46.395";"3";;;;;;;;;;;;;;;;;;;;;
